LabVIEW Measurement	
Writer_Version	2
Reader_Version	2
Separator	Tab
Decimal_Separator	.
Multi_Headings	No
X_Columns	One
Time_Pref	Absolute
Operator	gdw1d12
Date	2018/10/15
Time	10:59:24.9116802833531677749
***End_of_Header***	
	
Channels	1	
Samples	1	
Date	2018/10/15	
Time	10:59:24.9116802833531677749	
Y_Unit_Label	Volts	
X_Dimension	Time	
X0	0.0000000000000000E+0	
Delta_X	0.010000	
***End_of_Header***		
X_Value	Dev1/ai0	Comment
0.000000	0.771095
0.010000	0.771731
0.020000	0.773003
0.030000	0.774276
0.040000	0.776821
0.050000	0.780003
0.060000	0.779367
0.070000	0.783184
0.080000	0.786366
0.090000	0.782548
0.100000	0.786366
0.110000	0.789547
0.120000	0.788275
0.130000	0.794638
0.140000	0.794638
0.150000	0.794001
0.160000	0.798456
0.170000	0.794638
0.180000	0.798456
0.190000	0.798456
0.200000	0.796547
0.210000	0.802910
0.220000	0.800364
0.230000	0.798456
0.240000	0.802273
0.250000	0.797183
0.260000	0.797819
0.270000	0.798456
0.280000	0.795274
0.290000	0.797819
0.300000	0.796547
0.310000	0.793365
0.320000	0.793365
0.330000	0.788911
0.340000	0.787002
0.350000	0.788275
0.360000	0.782548
0.370000	0.783184
0.380000	0.781912
0.390000	0.777458
0.400000	0.773640
0.410000	0.773003
0.420000	0.767913
0.430000	0.770458
0.440000	0.766640
0.450000	0.765368
0.460000	0.764095
0.470000	0.762186
0.480000	0.761550
0.490000	0.757732
0.500000	0.755187
0.510000	0.759005
0.520000	0.759005
0.530000	0.755823
0.540000	0.758369
0.550000	0.752642
0.560000	0.753914
0.570000	0.755823
0.580000	0.754551
0.590000	0.758369
0.600000	0.762186
0.610000	0.759641
0.620000	0.762823
0.630000	0.762186
0.640000	0.763459
0.650000	0.765368
0.660000	0.767913
0.670000	0.771731
0.680000	0.774912
0.690000	0.776185
0.700000	0.777458
0.710000	0.778730
0.720000	0.778730
0.730000	0.784457
0.740000	0.785730
0.750000	0.788911
0.760000	0.791456
0.770000	0.790184
0.780000	0.790820
0.790000	0.791456
0.800000	0.790820
0.810000	0.796547
0.820000	0.797819
0.830000	0.795910
0.840000	0.800364
0.850000	0.797819
0.860000	0.794001
0.870000	0.795274
0.880000	0.792093
0.890000	0.795274
0.900000	0.794638
0.910000	0.792729
0.920000	0.794638
0.930000	0.789547
0.940000	0.787002
0.950000	0.783821
0.960000	0.783184
0.970000	0.782548
0.980000	0.781912
0.990000	0.777458
1.000000	0.778730
1.010000	0.772367
1.020000	0.769186
1.030000	0.770458
1.040000	0.768549
1.050000	0.766004
1.060000	0.769186
1.070000	0.766640
1.080000	0.762823
1.090000	0.762823
1.100000	0.757096
1.110000	0.758369
1.120000	0.760914
1.130000	0.759641
1.140000	0.764732
1.150000	0.761550
1.160000	0.757732
1.170000	0.759005
1.180000	0.757732
1.190000	0.759641
1.200000	0.766004
1.210000	0.766004
1.220000	0.769186
1.230000	0.769822
1.240000	0.765368
1.250000	0.769186
1.260000	0.766640
1.270000	0.773640
1.280000	0.777458
1.290000	0.779367
1.300000	0.783184
1.310000	0.781912
1.320000	0.778094
1.330000	0.781275
1.340000	0.783184
1.350000	0.787002
1.360000	0.793365
1.370000	0.793365
1.380000	0.793365
1.390000	0.792093
1.400000	0.785730
1.410000	0.788911
1.420000	0.790820
1.430000	0.794001
1.440000	0.800364
1.450000	0.797819
1.460000	0.795910
1.470000	0.794638
1.480000	0.787002
1.490000	0.785093
1.500000	0.789547
1.510000	0.789547
1.520000	0.793365
1.530000	0.790184
1.540000	0.785730
1.550000	0.784457
1.560000	0.776185
1.570000	0.774912
1.580000	0.776821
1.590000	0.776185
1.600000	0.779367
1.610000	0.776185
1.620000	0.772367
1.630000	0.769186
1.640000	0.764732
1.650000	0.764095
1.660000	0.766004
1.670000	0.764732
1.680000	0.766004
1.690000	0.767913
1.700000	0.759641
1.710000	0.759005
1.720000	0.757732
1.730000	0.755187
1.740000	0.760914
1.750000	0.762186
1.760000	0.761550
1.770000	0.762186
1.780000	0.757096
1.790000	0.757096
1.800000	0.759005
1.810000	0.759641
1.820000	0.766004
1.830000	0.764732
1.840000	0.764095
1.850000	0.767277
1.860000	0.764732
1.870000	0.764732
1.880000	0.770458
1.890000	0.771095
1.900000	0.776185
1.910000	0.778094
1.920000	0.775549
1.930000	0.776821
1.940000	0.777458
1.950000	0.779367
1.960000	0.788275
1.970000	0.788911
1.980000	0.792093
1.990000	0.794001
2.000000	0.788911
2.010000	0.790184
2.020000	0.790820
2.030000	0.792729
2.040000	0.801001
2.050000	0.802273
2.060000	0.803546
2.070000	0.802910
2.080000	0.797183
2.090000	0.797819
2.100000	0.800364
2.110000	0.801637
2.120000	0.807364
2.130000	0.809273
2.140000	0.806091
2.150000	0.805455
2.160000	0.795910
2.170000	0.793365
2.180000	0.796547
2.190000	0.797819
2.200000	0.801637
2.210000	0.800364
2.220000	0.793365
2.230000	0.790820
2.240000	0.784457
2.250000	0.780003
2.260000	0.781912
2.270000	0.781275
2.280000	0.783184
2.290000	0.782548
2.300000	0.774276
2.310000	0.770458
2.320000	0.764732
2.330000	0.759005
2.340000	0.762823
2.350000	0.764732
2.360000	0.764732
2.370000	0.764095
2.380000	0.755823
2.390000	0.752006
2.400000	0.748188
2.410000	0.745006
2.420000	0.752642
2.430000	0.756460
2.440000	0.757096
2.450000	0.755187
2.460000	0.749460
2.470000	0.745643
2.480000	0.746915
2.490000	0.746915
2.500000	0.753278
2.510000	0.759641
2.520000	0.760914
2.530000	0.762823
2.540000	0.758369
2.550000	0.753278
2.560000	0.757732
2.570000	0.759641
2.580000	0.769822
2.590000	0.776821
2.600000	0.778094
2.610000	0.776821
2.620000	0.774276
2.630000	0.772367
2.640000	0.778094
2.650000	0.783184
2.660000	0.790820
2.670000	0.797819
2.680000	0.794638
2.690000	0.794001
2.700000	0.792729
2.710000	0.787002
2.720000	0.795274
2.730000	0.797819
2.740000	0.802910
2.750000	0.808000
2.760000	0.804819
2.770000	0.801637
2.780000	0.797819
2.790000	0.790820
2.800000	0.796547
2.810000	0.800364
2.820000	0.800364
2.830000	0.805455
2.840000	0.802273
2.850000	0.795274
2.860000	0.790820
2.870000	0.787002
2.880000	0.787638
2.890000	0.790184
2.900000	0.787002
2.910000	0.788275
2.920000	0.786366
2.930000	0.778730
2.940000	0.776185
2.950000	0.772367
2.960000	0.770458
2.970000	0.775549
2.980000	0.772367
2.990000	0.773003
3.000000	0.772367
3.010000	0.764732
3.020000	0.764732
3.030000	0.761550
3.040000	0.759641
3.050000	0.764732
3.060000	0.762823
3.070000	0.761550
3.080000	0.762823
3.090000	0.757732
3.100000	0.757096
3.110000	0.758369
3.120000	0.758369
3.130000	0.761550
3.140000	0.759641
3.150000	0.757732
3.160000	0.759641
3.170000	0.757096
3.180000	0.757096
3.190000	0.759005
3.200000	0.759641
3.210000	0.761550
3.220000	0.762823
3.230000	0.760914
3.240000	0.766640
3.250000	0.762823
3.260000	0.762186
3.270000	0.767913
3.280000	0.766004
3.290000	0.769186
3.300000	0.771731
3.310000	0.767913
3.320000	0.771731
3.330000	0.773003
3.340000	0.773003
3.350000	0.775549
3.360000	0.774276
3.370000	0.778094
3.380000	0.780639
3.390000	0.778730
3.400000	0.780003
3.410000	0.780003
3.420000	0.778730
3.430000	0.784457
3.440000	0.785093
3.450000	0.785093
3.460000	0.790820
3.470000	0.787002
3.480000	0.785730
3.490000	0.788275
3.500000	0.785730
3.510000	0.790184
3.520000	0.792729
3.530000	0.789547
3.540000	0.795910
3.550000	0.793365
3.560000	0.791456
3.570000	0.794638
3.580000	0.789547
3.590000	0.793365
3.600000	0.795910
3.610000	0.794638
3.620000	0.799092
3.630000	0.798456
3.640000	0.792093
3.650000	0.794638
3.660000	0.794001
3.670000	0.794638
3.680000	0.797819
3.690000	0.797819
3.700000	0.795910
3.710000	0.795910
3.720000	0.788911
3.730000	0.790820
3.740000	0.789547
3.750000	0.787638
3.760000	0.792093
3.770000	0.790184
3.780000	0.789547
3.790000	0.788911
3.800000	0.778730
3.810000	0.779367
3.820000	0.776821
3.830000	0.776185
3.840000	0.780003
3.850000	0.778094
3.860000	0.776185
3.870000	0.772367
3.880000	0.767913
3.890000	0.764732
3.900000	0.764095
3.910000	0.763459
3.920000	0.766640
3.930000	0.767277
3.940000	0.762186
3.950000	0.763459
3.960000	0.757732
3.970000	0.754551
3.980000	0.757732
3.990000	0.757096
4.000000	0.758369
4.010000	0.762186
4.020000	0.758369
4.030000	0.758369
4.040000	0.753278
4.050000	0.753914
4.060000	0.757732
4.070000	0.758369
4.080000	0.762186
4.090000	0.763459
4.100000	0.760277
4.110000	0.762823
4.120000	0.760914
4.130000	0.761550
4.140000	0.767277
4.150000	0.768549
4.160000	0.770458
4.170000	0.773003
4.180000	0.772367
4.190000	0.771095
4.200000	0.773640
4.210000	0.774912
4.220000	0.778730
4.230000	0.782548
4.240000	0.783821
4.250000	0.785730
4.260000	0.782548
4.270000	0.783184
4.280000	0.788275
4.290000	0.787002
4.300000	0.790820
4.310000	0.792729
4.320000	0.790184
4.330000	0.792729
4.340000	0.790184
4.350000	0.789547
4.360000	0.792729
4.370000	0.793365
4.380000	0.794638
4.390000	0.796547
4.400000	0.791456
4.410000	0.790820
4.420000	0.789547
4.430000	0.786366
4.440000	0.790184
4.450000	0.790184
4.460000	0.791456
4.470000	0.788911
4.480000	0.785093
4.490000	0.778730
4.500000	0.780003
4.510000	0.780003
4.520000	0.782548
4.530000	0.784457
4.540000	0.782548
4.550000	0.781275
4.560000	0.774912
4.570000	0.769822
4.580000	0.771095
4.590000	0.769822
4.600000	0.771095
4.610000	0.776185
4.620000	0.771095
4.630000	0.773640
4.640000	0.767913
4.650000	0.762186
4.660000	0.764732
4.670000	0.763459
4.680000	0.769822
4.690000	0.772367
4.700000	0.772367
4.710000	0.769822
4.720000	0.766004
4.730000	0.760914
4.740000	0.763459
4.750000	0.766004
4.760000	0.768549
4.770000	0.774912
4.780000	0.771731
4.790000	0.771095
4.800000	0.769186
4.810000	0.766640
4.820000	0.766640
4.830000	0.772367
4.840000	0.773003
4.850000	0.780003
4.860000	0.780003
4.870000	0.775549
4.880000	0.776821
4.890000	0.773003
4.900000	0.775549
4.910000	0.779367
4.920000	0.780003
4.930000	0.784457
4.940000	0.785730
4.950000	0.781912
4.960000	0.784457
4.970000	0.781275
4.980000	0.780003
4.990000	0.786366
5.000000	0.785730
5.010000	0.788911
5.020000	0.790820
5.030000	0.784457
5.040000	0.785730
5.050000	0.782548
5.060000	0.782548
5.070000	0.788275
5.080000	0.787002
5.090000	0.786366
5.100000	0.787638
5.110000	0.785093
5.120000	0.781275
5.130000	0.781912
5.140000	0.780639
5.150000	0.783821
5.160000	0.783184
5.170000	0.782548
5.180000	0.783184
5.190000	0.778730
5.200000	0.776185
5.210000	0.777458
5.220000	0.775549
5.230000	0.777458
5.240000	0.777458
5.250000	0.774912
5.260000	0.775549
5.270000	0.774276
5.280000	0.771095
5.290000	0.773003
5.300000	0.769186
5.310000	0.774276
5.320000	0.776821
5.330000	0.773640
5.340000	0.774276
5.350000	0.771731
5.360000	0.769186
5.370000	0.773640
5.380000	0.773640
5.390000	0.774912
5.400000	0.778094
5.410000	0.776185
5.420000	0.777458
5.430000	0.774912
5.440000	0.772367
5.450000	0.777458
5.460000	0.777458
5.470000	0.779367
5.480000	0.783184
5.490000	0.782548
5.500000	0.781275
5.510000	0.781912
5.520000	0.778094
5.530000	0.781912
5.540000	0.785093
5.550000	0.785093
5.560000	0.787638
5.570000	0.784457
5.580000	0.785093
5.590000	0.782548
5.600000	0.780003
5.610000	0.782548
5.620000	0.783821
5.630000	0.785093
5.640000	0.788275
5.650000	0.784457
5.660000	0.779367
5.670000	0.780003
5.680000	0.774912
5.690000	0.776821
5.700000	0.781912
5.710000	0.778730
5.720000	0.780003
5.730000	0.777458
5.740000	0.769822
5.750000	0.771095
5.760000	0.765368
5.770000	0.766004
5.780000	0.769822
5.790000	0.769822
5.800000	0.768549
5.810000	0.766640
5.820000	0.762186
5.830000	0.759005
5.840000	0.758369
5.850000	0.759641
5.860000	0.762186
5.870000	0.764095
5.880000	0.762823
5.890000	0.762186
5.900000	0.757732
5.910000	0.757096
5.920000	0.760277
5.930000	0.760277
5.940000	0.769186
5.950000	0.769822
5.960000	0.768549
5.970000	0.767913
5.980000	0.767277
5.990000	0.764095
6.000000	0.770458
6.010000	0.770458
6.020000	0.779367
6.030000	0.784457
6.040000	0.783184
6.050000	0.785730
6.060000	0.783821
6.070000	0.781275
6.080000	0.789547
6.090000	0.792729
6.100000	0.796547
6.110000	0.801637
6.120000	0.799092
6.130000	0.798456
6.140000	0.798456
6.150000	0.795274
6.160000	0.801001
6.170000	0.804819
6.180000	0.806727
6.190000	0.808636
6.200000	0.806091
6.210000	0.801001
6.220000	0.800364
6.230000	0.797183
6.240000	0.797819
6.250000	0.800364
6.260000	0.796547
6.270000	0.800364
6.280000	0.793365
6.290000	0.789547
6.300000	0.786366
6.310000	0.781912
6.320000	0.781912
6.330000	0.783184
6.340000	0.778094
6.350000	0.775549
6.360000	0.770458
6.370000	0.762823
6.380000	0.763459
6.390000	0.760914
6.400000	0.757732
6.410000	0.760277
6.420000	0.755823
6.430000	0.752006
6.440000	0.749460
6.450000	0.741825
6.460000	0.745643
6.470000	0.744370
6.480000	0.743734
6.490000	0.748824
6.500000	0.747551
6.510000	0.743097
6.520000	0.744370
6.530000	0.739916
6.540000	0.744370
6.550000	0.748188
6.560000	0.748824
6.570000	0.757096
6.580000	0.755187
6.590000	0.755187
6.600000	0.759005
6.610000	0.755823
6.620000	0.762823
6.630000	0.770458
6.640000	0.772367
6.650000	0.780003
6.660000	0.779367
6.670000	0.779367
6.680000	0.783821
6.690000	0.783184
6.700000	0.790184
6.710000	0.796547
6.720000	0.798456
6.730000	0.803546
6.740000	0.804819
6.750000	0.799728
6.760000	0.802273
6.770000	0.806091
6.780000	0.806727
6.790000	0.813090
6.800000	0.812454
6.810000	0.811182
6.820000	0.812454
6.830000	0.807364
6.840000	0.808000
6.850000	0.808000
6.860000	0.806727
6.870000	0.811818
6.880000	0.806727
6.890000	0.802910
6.900000	0.800364
6.910000	0.793365
6.920000	0.790820
6.930000	0.791456
6.940000	0.788911
6.950000	0.791456
6.960000	0.785730
6.970000	0.780003
6.980000	0.777458
6.990000	0.769186
7.000000	0.767913
7.010000	0.770458
7.020000	0.767913
7.030000	0.767913
7.040000	0.767277
7.050000	0.760914
7.060000	0.757732
7.070000	0.754551
7.080000	0.753914
7.090000	0.757096
7.100000	0.757732
7.110000	0.759641
7.120000	0.758369
7.130000	0.751369
7.140000	0.753278
7.150000	0.755823
7.160000	0.754551
7.170000	0.761550
7.180000	0.764095
7.190000	0.764095
7.200000	0.766640
7.210000	0.761550
7.220000	0.760914
7.230000	0.767277
7.240000	0.767277
7.250000	0.775549
7.260000	0.778094
7.270000	0.777458
7.280000	0.777458
7.290000	0.775549
7.300000	0.775549
7.310000	0.781912
7.320000	0.782548
7.330000	0.785730
7.340000	0.787638
7.350000	0.784457
7.360000	0.784457
7.370000	0.783184
7.380000	0.780003
7.390000	0.783184
7.400000	0.785093
7.410000	0.787002
7.420000	0.789547
7.430000	0.783184
7.440000	0.782548
7.450000	0.777458
7.460000	0.773640
7.470000	0.778094
7.480000	0.779367
7.490000	0.778730
7.500000	0.779367
7.510000	0.774912
7.520000	0.772367
7.530000	0.770458
7.540000	0.767277
7.550000	0.768549
7.560000	0.770458
7.570000	0.767277
7.580000	0.769822
7.590000	0.764732
7.600000	0.764095
7.610000	0.764732
7.620000	0.764095
7.630000	0.766004
7.640000	0.770458
7.650000	0.767277
7.660000	0.769186
7.670000	0.767913
7.680000	0.766004
7.690000	0.768549
7.700000	0.769822
7.710000	0.772367
7.720000	0.778730
7.730000	0.774276
7.740000	0.776821
7.750000	0.778730
7.760000	0.776185
7.770000	0.782548
7.780000	0.782548
7.790000	0.785093
7.800000	0.790184
7.810000	0.790184
7.820000	0.791456
7.830000	0.793365
7.840000	0.792093
7.850000	0.795910
7.860000	0.797819
7.870000	0.797183
7.880000	0.803546
7.890000	0.799728
7.900000	0.799092
7.910000	0.801637
7.920000	0.799728
7.930000	0.803546
7.940000	0.805455
7.950000	0.800364
7.960000	0.802273
7.970000	0.800364
7.980000	0.797183
7.990000	0.802273
8.000000	0.800364
8.010000	0.799092
8.020000	0.798456
8.030000	0.793365
8.040000	0.792093
8.050000	0.790184
8.060000	0.785730
8.070000	0.788275
8.080000	0.788275
8.090000	0.784457
8.100000	0.784457
8.110000	0.777458
8.120000	0.774912
8.130000	0.773003
8.140000	0.769822
8.150000	0.771095
8.160000	0.771095
8.170000	0.764095
8.180000	0.764095
8.190000	0.757096
8.200000	0.754551
8.210000	0.755823
8.220000	0.755187
8.230000	0.755823
8.240000	0.757096
8.250000	0.749460
8.260000	0.750733
8.270000	0.746279
8.280000	0.746279
8.290000	0.749460
8.300000	0.746915
8.310000	0.748188
8.320000	0.753278
8.330000	0.748824
8.340000	0.749460
8.350000	0.748824
8.360000	0.749460
8.370000	0.754551
8.380000	0.755823
8.390000	0.757096
8.400000	0.760914
8.410000	0.761550
8.420000	0.759641
8.430000	0.762823
8.440000	0.762186
8.450000	0.771095
8.460000	0.775549
8.470000	0.776821
8.480000	0.781912
8.490000	0.780003
8.500000	0.777458
8.510000	0.780003
8.520000	0.782548
8.530000	0.788911
8.540000	0.797183
8.550000	0.797183
8.560000	0.798456
8.570000	0.796547
8.580000	0.792093
8.590000	0.796547
8.600000	0.798456
8.610000	0.802910
8.620000	0.809273
8.630000	0.804819
8.640000	0.803546
8.650000	0.800364
8.660000	0.795910
8.670000	0.799728
8.680000	0.801001
8.690000	0.803546
8.700000	0.807364
8.710000	0.803546
8.720000	0.799092
8.730000	0.796547
8.740000	0.793365
8.750000	0.793365
8.760000	0.795274
8.770000	0.794001
8.780000	0.797819
8.790000	0.791456
8.800000	0.785093
8.810000	0.782548
8.820000	0.778094
8.830000	0.776821
8.840000	0.780639
