LabVIEW Measurement	
Writer_Version	2
Reader_Version	2
Separator	Tab
Decimal_Separator	.
Multi_Headings	No
X_Columns	One
Time_Pref	Absolute
Operator	gdw1d12
Date	2018/10/15
Time	12:27:44.9921266833530069187
***End_of_Header***	
	
Channels	1	
Samples	1	
Date	2018/10/15	
Time	12:27:44.9921266833530069187	
Y_Unit_Label	Volts	
X_Dimension	Time	
X0	0.0000000000000000E+0	
Delta_X	0.010000	
***End_of_Header***		
X_Value	Dev1/ai0	Comment
0.000000	1.055521
0.010000	1.044068
0.020000	1.054249
0.030000	1.070156
0.040000	1.082882
0.050000	1.093699
0.060000	1.094972
0.070000	1.087973
0.080000	1.078428
0.090000	1.080973
0.100000	1.089245
0.110000	1.105153
0.120000	1.119151
0.130000	1.128060
0.140000	1.123606
0.150000	1.117242
0.160000	1.103244
0.170000	1.110243
0.180000	1.119151
0.190000	1.131877
0.200000	1.149694
0.210000	1.147149
0.220000	1.136332
0.230000	1.129969
0.240000	1.114061
0.250000	1.118515
0.260000	1.129332
0.270000	1.137604
0.280000	1.147149
0.290000	1.138240
0.300000	1.121060
0.310000	1.112152
0.320000	1.100062
0.330000	1.101971
0.340000	1.111516
0.350000	1.115970
0.360000	1.117242
0.370000	1.105789
0.380000	1.086700
0.390000	1.071429
0.400000	1.066338
0.410000	1.068884
0.420000	1.076519
0.430000	1.080337
0.440000	1.072065
0.450000	1.058703
0.460000	1.044068
0.470000	1.030706
0.480000	1.031978
0.490000	1.034523
0.500000	1.038341
0.510000	1.044704
0.520000	1.035796
0.530000	1.024343
0.540000	1.016071
0.550000	1.007162
0.560000	1.007799
0.570000	1.018616
0.580000	1.023070
0.590000	1.030069
0.600000	1.024343
0.610000	1.016071
0.620000	1.012253
0.630000	1.009708
0.640000	1.014798
0.650000	1.030069
0.660000	1.038977
0.670000	1.044704
0.680000	1.042795
0.690000	1.037069
0.700000	1.037705
0.710000	1.044068
0.720000	1.052340
0.730000	1.064429
0.740000	1.073974
0.750000	1.079064
0.760000	1.079701
0.770000	1.079701
0.780000	1.078428
0.790000	1.086700
0.800000	1.095608
0.810000	1.103244
0.820000	1.115334
0.830000	1.117879
0.840000	1.115970
0.850000	1.117242
0.860000	1.115334
0.870000	1.121060
0.880000	1.132514
0.890000	1.137604
0.900000	1.140786
0.910000	1.143331
0.920000	1.134423
0.930000	1.136332
0.940000	1.135695
0.950000	1.136968
0.960000	1.142695
0.970000	1.143967
0.980000	1.143967
0.990000	1.143331
1.000000	1.133150
1.010000	1.128060
1.020000	1.127423
1.030000	1.125514
1.040000	1.127423
1.050000	1.128060
1.060000	1.122333
1.070000	1.113425
1.080000	1.107698
1.090000	1.100699
1.100000	1.098153
1.110000	1.097517
1.120000	1.094972
1.130000	1.093063
1.140000	1.086700
1.150000	1.077792
1.160000	1.074610
1.170000	1.067611
1.180000	1.063793
1.190000	1.063793
1.200000	1.058703
1.210000	1.058703
1.220000	1.054885
1.230000	1.047249
1.240000	1.044068
1.250000	1.040250
1.260000	1.037069
1.270000	1.038977
1.280000	1.038977
1.290000	1.036432
1.300000	1.038341
1.310000	1.032614
1.320000	1.029433
1.330000	1.031978
1.340000	1.028160
1.350000	1.030706
1.360000	1.036432
1.370000	1.037069
1.380000	1.040886
1.390000	1.039614
1.400000	1.036432
1.410000	1.038341
1.420000	1.043432
1.430000	1.044704
1.440000	1.051703
1.450000	1.054249
1.460000	1.054249
1.470000	1.059975
1.480000	1.058066
1.490000	1.057430
1.500000	1.065066
1.510000	1.065702
1.520000	1.073338
1.530000	1.081610
1.540000	1.078428
1.550000	1.081610
1.560000	1.081610
1.570000	1.079064
1.580000	1.084791
1.590000	1.087336
1.600000	1.088609
1.610000	1.098153
1.620000	1.098790
1.630000	1.098153
1.640000	1.100699
1.650000	1.096881
1.660000	1.096245
1.670000	1.100062
1.680000	1.101971
1.690000	1.110243
1.700000	1.112788
1.710000	1.107698
1.720000	1.108334
1.730000	1.103880
1.740000	1.100699
1.750000	1.105789
1.760000	1.110879
1.770000	1.111516
1.780000	1.115334
1.790000	1.110879
1.800000	1.103244
1.810000	1.101971
1.820000	1.100062
1.830000	1.100062
1.840000	1.108971
1.850000	1.108334
1.860000	1.108334
1.870000	1.103880
1.880000	1.097517
1.890000	1.094972
1.900000	1.093063
1.910000	1.089882
1.920000	1.096245
1.930000	1.097517
1.940000	1.093063
1.950000	1.089882
1.960000	1.082882
1.970000	1.078428
1.980000	1.080337
1.990000	1.079064
2.000000	1.080973
2.010000	1.086064
2.020000	1.079701
2.030000	1.075883
2.040000	1.070156
2.050000	1.063793
2.060000	1.064429
2.070000	1.067611
2.080000	1.067611
2.090000	1.068247
2.100000	1.063157
2.110000	1.054885
2.120000	1.054885
2.130000	1.052976
2.140000	1.051703
2.150000	1.057430
2.160000	1.054249
2.170000	1.052340
2.180000	1.051703
2.190000	1.047249
2.200000	1.043432
2.210000	1.044704
2.220000	1.044704
2.230000	1.051067
2.240000	1.053612
2.250000	1.048522
2.260000	1.048522
2.270000	1.047249
2.280000	1.044704
2.290000	1.051703
2.300000	1.054249
2.310000	1.057430
2.320000	1.064429
2.330000	1.062521
2.340000	1.064429
2.350000	1.066338
2.360000	1.066975
2.370000	1.073338
2.380000	1.080973
2.390000	1.082882
2.400000	1.087336
2.410000	1.090518
2.420000	1.087973
2.430000	1.094336
2.440000	1.098790
2.450000	1.103244
2.460000	1.112152
2.470000	1.115334
2.480000	1.114697
2.490000	1.117242
2.500000	1.114697
2.510000	1.115970
2.520000	1.122333
2.530000	1.126151
2.540000	1.128696
2.550000	1.129332
2.560000	1.123606
2.570000	1.123606
2.580000	1.121060
2.590000	1.119151
2.600000	1.121697
2.610000	1.124242
2.620000	1.121060
2.630000	1.119788
2.640000	1.112152
2.650000	1.103880
2.660000	1.101971
2.670000	1.096881
2.680000	1.097517
2.690000	1.100699
2.700000	1.095608
2.710000	1.089882
2.720000	1.080337
2.730000	1.068884
2.740000	1.067611
2.750000	1.066975
2.760000	1.064429
2.770000	1.068247
2.780000	1.063157
2.790000	1.057430
2.800000	1.052976
2.810000	1.043432
2.820000	1.038341
2.830000	1.042159
2.840000	1.042159
2.850000	1.047249
2.860000	1.047886
2.870000	1.042795
2.880000	1.040250
2.890000	1.038341
2.900000	1.034523
2.910000	1.037069
2.920000	1.042795
2.930000	1.049158
2.940000	1.057430
2.950000	1.059339
2.960000	1.056158
2.970000	1.058066
2.980000	1.055521
2.990000	1.061248
3.000000	1.073338
3.010000	1.080973
3.020000	1.087973
3.030000	1.094336
3.040000	1.089882
3.050000	1.092427
3.060000	1.095608
3.070000	1.100062
3.080000	1.112788
3.090000	1.121060
3.100000	1.125514
3.110000	1.130605
3.120000	1.126787
3.130000	1.125514
3.140000	1.129332
3.150000	1.130605
3.160000	1.135695
3.170000	1.144603
3.180000	1.145240
3.190000	1.145240
3.200000	1.143967
3.210000	1.136968
3.220000	1.134423
3.230000	1.133786
3.240000	1.135695
3.250000	1.138877
3.260000	1.135695
3.270000	1.127423
3.280000	1.119151
3.290000	1.109607
3.300000	1.103244
3.310000	1.105153
3.320000	1.100699
3.330000	1.098790
3.340000	1.097517
3.350000	1.084155
3.360000	1.070792
3.370000	1.061248
3.380000	1.052976
3.390000	1.055521
3.400000	1.058066
3.410000	1.055521
3.420000	1.047249
3.430000	1.035796
3.440000	1.023706
3.450000	1.018616
3.460000	1.016707
3.470000	1.017979
3.480000	1.027524
3.490000	1.025615
3.500000	1.018616
3.510000	1.010980
3.520000	1.000163
3.530000	1.002072
3.540000	1.006526
3.550000	1.016071
3.560000	1.024979
3.570000	1.027524
3.580000	1.021797
3.590000	1.017343
3.600000	1.012889
3.610000	1.016071
3.620000	1.030069
3.630000	1.044068
3.640000	1.052976
3.650000	1.059975
3.660000	1.055521
3.670000	1.049158
3.680000	1.048522
3.690000	1.054885
3.700000	1.066975
3.710000	1.087973
3.720000	1.091790
3.730000	1.099426
3.740000	1.093063
3.750000	1.085427
3.760000	1.085427
3.770000	1.090518
3.780000	1.104516
3.790000	1.122333
3.800000	1.124242
3.810000	1.124242
3.820000	1.116606
3.830000	1.105789
3.840000	1.103244
3.850000	1.109607
3.860000	1.121697
3.870000	1.133786
3.880000	1.135059
3.890000	1.126787
3.900000	1.114697
3.910000	1.102608
3.920000	1.097517
3.930000	1.105153
3.940000	1.117242
3.950000	1.122969
3.960000	1.124878
3.970000	1.110243
3.980000	1.094336
3.990000	1.084155
4.000000	1.078428
4.010000	1.086700
4.020000	1.094972
4.030000	1.100062
4.040000	1.095608
4.050000	1.086700
4.060000	1.068247
4.070000	1.061248
4.080000	1.061248
4.090000	1.063793
4.100000	1.077156
4.110000	1.076519
4.120000	1.072065
4.130000	1.065066
4.140000	1.051067
4.150000	1.044704
4.160000	1.047886
4.170000	1.054885
4.180000	1.065702
4.190000	1.068884
4.200000	1.061248
4.210000	1.056158
4.220000	1.046613
4.230000	1.038977
4.240000	1.049158
4.250000	1.061248
4.260000	1.067611
4.270000	1.075247
4.280000	1.071429
4.290000	1.061248
4.300000	1.057430
4.310000	1.054885
4.320000	1.062521
4.330000	1.078428
4.340000	1.086064
4.350000	1.091154
4.360000	1.087973
4.370000	1.073974
4.380000	1.070156
4.390000	1.070156
4.400000	1.077156
4.410000	1.091790
4.420000	1.100062
4.430000	1.098790
4.440000	1.095608
4.450000	1.084155
4.460000	1.078428
4.470000	1.082882
4.480000	1.089245
4.490000	1.098153
4.500000	1.106425
4.510000	1.099426
4.520000	1.091790
4.530000	1.082882
4.540000	1.077792
4.550000	1.079064
4.560000	1.088609
4.570000	1.093063
4.580000	1.100062
4.590000	1.096245
4.600000	1.087336
4.610000	1.078428
4.620000	1.072701
4.630000	1.072065
4.640000	1.082246
4.650000	1.085427
4.660000	1.090518
4.670000	1.088609
4.680000	1.076519
4.690000	1.069520
4.700000	1.067611
4.710000	1.062521
4.720000	1.074610
4.730000	1.077792
4.740000	1.077792
4.750000	1.080337
4.760000	1.068884
4.770000	1.062521
4.780000	1.061884
4.790000	1.061248
4.800000	1.067611
4.810000	1.075247
4.820000	1.077156
4.830000	1.075247
4.840000	1.073338
4.850000	1.065702
4.860000	1.066338
4.870000	1.072701
4.880000	1.075883
4.890000	1.087336
4.900000	1.093063
4.910000	1.092427
4.920000	1.090518
4.930000	1.087336
4.940000	1.088609
4.950000	1.098153
4.960000	1.105153
4.970000	1.117242
4.980000	1.123606
4.990000	1.122333
5.000000	1.121060
5.010000	1.119788
5.020000	1.115970
5.030000	1.126787
5.040000	1.133150
5.050000	1.140149
5.060000	1.147149
5.070000	1.142058
5.080000	1.137604
5.090000	1.136332
5.100000	1.131241
5.110000	1.132514
5.120000	1.138877
5.130000	1.138877
5.140000	1.137604
5.150000	1.133786
5.160000	1.124878
5.170000	1.115334
5.180000	1.112788
5.190000	1.105789
5.200000	1.109607
5.210000	1.106425
5.220000	1.101971
5.230000	1.093699
5.240000	1.085427
5.250000	1.073974
5.260000	1.071429
5.270000	1.063157
5.280000	1.063793
5.290000	1.065066
5.300000	1.057430
5.310000	1.052340
5.320000	1.046613
5.330000	1.036432
5.340000	1.032614
5.350000	1.033887
5.360000	1.031342
5.370000	1.035160
5.380000	1.035160
5.390000	1.031342
5.400000	1.028797
5.410000	1.027524
5.420000	1.024343
5.430000	1.028797
5.440000	1.032614
5.450000	1.031978
5.460000	1.038341
5.470000	1.033887
5.480000	1.033887
5.490000	1.040250
5.500000	1.040250
5.510000	1.045977
5.520000	1.054249
5.530000	1.054249
5.540000	1.054885
5.550000	1.052976
5.560000	1.052340
5.570000	1.060612
5.580000	1.066338
5.590000	1.072701
5.600000	1.082882
5.610000	1.079701
5.620000	1.074610
5.630000	1.073974
5.640000	1.071429
5.650000	1.077792
5.660000	1.087336
5.670000	1.093063
5.680000	1.101971
5.690000	1.102608
5.700000	1.094336
5.710000	1.093063
5.720000	1.088609
5.730000	1.089882
5.740000	1.100699
5.750000	1.110243
5.760000	1.113425
5.770000	1.114061
5.780000	1.105789
5.790000	1.098790
5.800000	1.094972
5.810000	1.094336
5.820000	1.103244
5.830000	1.113425
5.840000	1.113425
5.850000	1.112152
5.860000	1.102608
5.870000	1.090518
5.880000	1.087336
5.890000	1.087336
5.900000	1.093063
5.910000	1.103880
5.920000	1.103880
5.930000	1.098153
5.940000	1.093699
5.950000	1.080337
5.960000	1.073338
5.970000	1.076519
5.980000	1.079064
5.990000	1.086064
6.000000	1.091154
6.010000	1.086064
6.020000	1.080973
6.030000	1.068884
6.040000	1.061884
6.050000	1.062521
6.060000	1.069520
6.070000	1.077156
6.080000	1.085427
6.090000	1.079064
6.100000	1.076519
6.110000	1.068884
6.120000	1.063793
6.130000	1.059975
6.140000	1.070156
6.150000	1.075883
6.160000	1.080973
6.170000	1.082882
6.180000	1.075883
6.190000	1.070156
6.200000	1.066975
6.210000	1.064429
6.220000	1.072065
6.230000	1.081610
6.240000	1.082882
6.250000	1.087973
6.260000	1.078428
6.270000	1.069520
6.280000	1.065702
6.290000	1.066975
6.300000	1.073974
6.310000	1.084155
6.320000	1.084791
6.330000	1.085427
6.340000	1.079701
6.350000	1.068247
6.360000	1.065066
6.370000	1.068884
6.380000	1.075247
6.390000	1.084791
6.400000	1.084791
6.410000	1.081610
6.420000	1.077792
6.430000	1.072065
6.440000	1.067611
6.450000	1.074610
6.460000	1.079701
6.470000	1.082882
6.480000	1.086700
6.490000	1.079064
6.500000	1.077156
6.510000	1.077156
6.520000	1.072065
6.530000	1.077156
6.540000	1.080337
6.550000	1.082246
6.560000	1.084791
6.570000	1.079701
6.580000	1.075247
6.590000	1.077792
6.600000	1.075247
6.610000	1.076519
6.620000	1.080973
6.630000	1.082246
6.640000	1.081610
6.650000	1.080337
6.660000	1.075883
6.670000	1.073974
6.680000	1.076519
6.690000	1.075247
6.700000	1.079064
6.710000	1.079701
6.720000	1.077156
6.730000	1.079701
6.740000	1.075883
6.750000	1.072701
6.760000	1.077156
6.770000	1.075247
6.780000	1.075247
6.790000	1.078428
6.800000	1.072065
6.810000	1.073974
6.820000	1.072701
6.830000	1.068247
6.840000	1.073338
6.850000	1.072701
6.860000	1.069520
6.870000	1.070792
6.880000	1.066338
6.890000	1.063157
6.900000	1.065066
6.910000	1.065066
6.920000	1.063157
6.930000	1.064429
6.940000	1.059975
6.950000	1.056158
6.960000	1.057430
6.970000	1.056794
6.980000	1.057430
6.990000	1.057430
7.000000	1.056158
7.010000	1.055521
7.020000	1.053612
7.030000	1.048522
7.040000	1.051703
7.050000	1.050431
7.060000	1.056158
7.070000	1.061884
7.080000	1.058066
7.090000	1.053612
7.100000	1.052340
7.110000	1.046613
7.120000	1.052976
7.130000	1.061248
7.140000	1.067611
7.150000	1.072065
7.160000	1.073338
7.170000	1.065066
7.180000	1.064429
7.190000	1.066338
7.200000	1.067611
7.210000	1.084155
7.220000	1.091790
7.230000	1.099426
7.240000	1.100699
7.250000	1.100062
7.260000	1.096881
7.270000	1.100062
7.280000	1.102608
7.290000	1.114061
7.300000	1.128696
7.310000	1.134423
7.320000	1.143331
7.330000	1.139513
7.340000	1.133786
7.350000	1.130605
7.360000	1.133786
7.370000	1.142695
7.380000	1.161147
7.390000	1.169419
7.400000	1.171328
7.410000	1.165601
7.420000	1.154148
7.430000	1.143331
7.440000	1.147149
7.450000	1.147785
7.460000	1.161147
7.470000	1.168783
7.480000	1.166238
7.490000	1.154784
7.500000	1.138240
7.510000	1.119788
7.520000	1.115970
7.530000	1.115970
7.540000	1.124878
7.550000	1.129332
7.560000	1.121060
7.570000	1.110879
7.580000	1.085427
7.590000	1.069520
7.600000	1.058703
7.610000	1.055521
7.620000	1.065702
7.630000	1.055521
7.640000	1.058066
7.650000	1.038341
7.660000	1.022434
7.670000	1.011616
7.680000	1.002708
7.690000	1.005890
7.700000	1.010980
7.710000	1.012889
7.720000	1.017343
7.730000	1.005253
7.740000	0.991255
7.750000	0.993800
7.760000	0.986164
7.770000	0.996345
7.780000	1.004617
7.790000	1.010344
7.800000	1.019252
7.810000	1.019888
7.820000	1.014798
7.830000	1.021797
7.840000	1.019888
7.850000	1.035160
7.860000	1.047249
7.870000	1.061884
7.880000	1.071429
7.890000	1.077792
7.900000	1.079701
7.910000	1.079701
7.920000	1.087336
7.930000	1.098790
7.940000	1.105153
7.950000	1.121060
7.960000	1.135059
7.970000	1.140786
7.980000	1.147149
7.990000	1.143331
8.000000	1.140786
8.010000	1.150966
8.020000	1.149058
8.030000	1.163692
8.040000	1.168147
8.050000	1.168147
8.060000	1.179600
8.070000	1.168147
8.080000	1.166238
8.090000	1.163056
8.100000	1.154148
8.110000	1.159875
8.120000	1.164965
8.130000	1.159238
8.140000	1.166238
8.150000	1.154784
8.160000	1.144603
8.170000	1.133786
8.180000	1.128696
8.190000	1.131877
8.200000	1.129332
8.210000	1.122969
8.220000	1.118515
8.230000	1.108334
8.240000	1.101971
8.250000	1.084791
8.260000	1.084155
8.270000	1.080337
8.280000	1.075247
8.290000	1.070792
8.300000	1.058066
8.310000	1.052340
8.320000	1.044704
8.330000	1.035796
8.340000	1.042159
8.350000	1.037705
8.360000	1.016707
8.370000	1.007799
8.380000	0.992527
8.390000	0.992527
8.400000	1.000799
8.410000	1.005253
8.420000	1.005253
8.430000	1.000163
8.440000	0.981074
8.450000	0.967075
8.460000	0.958803
8.470000	0.968348
8.480000	0.981074
8.490000	1.001436
8.500000	1.003345
8.510000	0.993800
8.520000	0.975984
8.530000	0.960076
8.540000	0.965166
8.550000	0.983619
8.560000	1.005253
8.570000	1.028797
8.580000	1.028797
8.590000	1.019888
8.600000	1.009708
8.610000	1.002708
8.620000	1.017979
8.630000	1.032614
8.640000	1.048522
8.650000	1.070156
8.660000	1.082882
8.670000	1.076519
8.680000	1.073338
8.690000	1.062521
8.700000	1.066975
8.710000	1.085427
8.720000	1.107062
8.730000	1.126151
8.740000	1.142058
8.750000	1.141422
8.760000	1.135695
8.770000	1.126787
8.780000	1.124242
8.790000	1.135059
8.800000	1.156693
8.810000	1.174510
8.820000	1.190417
8.830000	1.193599
8.840000	1.186599
8.850000	1.171328
8.860000	1.157966
8.870000	1.156693
8.880000	1.173873
8.890000	1.189145
8.900000	1.207597
8.910000	1.209506
8.920000	1.196780
8.930000	1.166238
8.940000	1.149058
8.950000	1.130605
8.960000	1.144603
8.970000	1.156057
8.980000	1.168147
8.990000	1.168783
9.000000	1.145876
9.010000	1.117242
9.020000	1.093063
9.030000	1.072701
9.040000	1.071429
9.050000	1.079701
9.060000	1.086064
9.070000	1.089882
9.080000	1.077792
9.090000	1.053612
9.100000	1.023070
9.110000	1.006526
9.120000	0.992527
9.130000	1.002072
9.140000	1.014162
9.150000	1.028160
9.160000	1.030706
9.170000	1.013525
9.180000	0.981074
9.190000	0.970257
9.200000	0.965803
9.210000	0.982983
9.220000	1.002072
9.230000	1.012889
9.240000	1.017979
9.250000	1.015434
9.260000	1.000799
9.270000	0.996345
9.280000	1.002072
9.290000	1.020525
9.300000	1.044068
9.310000	1.056158
9.320000	1.061248
9.330000	1.058703
9.340000	1.058703
9.350000	1.058066
9.360000	1.073338
9.370000	1.089245
9.380000	1.103880
9.390000	1.113425
9.400000	1.113425
9.410000	1.107698
9.420000	1.110879
9.430000	1.117242
9.440000	1.131241
9.450000	1.142695
9.460000	1.146512
9.470000	1.145876
9.480000	1.142695
9.490000	1.133150
9.500000	1.140149
9.510000	1.142058
9.520000	1.150330
9.530000	1.157329
9.540000	1.149058
9.550000	1.138240
9.560000	1.130605
9.570000	1.118515
9.580000	1.117879
9.590000	1.124242
9.600000	1.124878
9.610000	1.124878
9.620000	1.110243
9.630000	1.091154
9.640000	1.077156
9.650000	1.065702
9.660000	1.063793
9.670000	1.074610
9.680000	1.079064
9.690000	1.076519
9.700000	1.063793
9.710000	1.040250
9.720000	1.023070
9.730000	1.018616
9.740000	1.022434
9.750000	1.035160
9.760000	1.047249
9.770000	1.043432
9.780000	1.033251
9.790000	1.016707
9.800000	1.000163
9.810000	1.003345
9.820000	1.015434
9.830000	1.035160
9.840000	1.051703
9.850000	1.055521
9.860000	1.037705
9.870000	1.023070
9.880000	1.010980
9.890000	1.016707
9.900000	1.046613
9.910000	1.070156
9.920000	1.091154
9.930000	1.089245
9.940000	1.068884
9.950000	1.054249
9.960000	1.047886
9.970000	1.056794
9.980000	1.086064
9.990000	1.112788
10.000000	1.128060
10.010000	1.124242
10.020000	1.105789
10.030000	1.083519
10.040000	1.080337
10.050000	1.093699
10.060000	1.119151
10.070000	1.143967
10.080000	1.150330
10.090000	1.142695
10.100000	1.126787
10.110000	1.105789
10.120000	1.100699
10.130000	1.109607
10.140000	1.125514
10.150000	1.146512
10.160000	1.150966
10.170000	1.142058
10.180000	1.121060
10.190000	1.100062
10.200000	1.093063
10.210000	1.107698
10.220000	1.117242
10.230000	1.131241
10.240000	1.133150
10.250000	1.117879
10.260000	1.099426
10.270000	1.082882
10.280000	1.072701
10.290000	1.080337
10.300000	1.094972
10.310000	1.103880
10.320000	1.113425
10.330000	1.098153
10.340000	1.076519
10.350000	1.061884
10.360000	1.056158
10.370000	1.065066
10.380000	1.086064
10.390000	1.098153
10.400000	1.099426
10.410000	1.091154
10.420000	1.069520
10.430000	1.054885
10.440000	1.057430
10.450000	1.067611
10.460000	1.091154
10.470000	1.107062
10.480000	1.103244
10.490000	1.092427
10.500000	1.072701
10.510000	1.061248
10.520000	1.068247
10.530000	1.082246
10.540000	1.100062
10.550000	1.113425
10.560000	1.104516
10.570000	1.091154
10.580000	1.079064
10.590000	1.070156
10.600000	1.076519
10.610000	1.088609
10.620000	1.098153
10.630000	1.106425
10.640000	1.098153
10.650000	1.082882
10.660000	1.073974
10.670000	1.065066
10.680000	1.066975
10.690000	1.077792
10.700000	1.082882
10.710000	1.086064
10.720000	1.079701
10.730000	1.065702
10.740000	1.054885
10.750000	1.049795
10.760000	1.049158
10.770000	1.055521
10.780000	1.063793
10.790000	1.061248
10.800000	1.057430
10.810000	1.046613
10.820000	1.031342
10.830000	1.033251
10.840000	1.033251
10.850000	1.042159
10.860000	1.053612
10.870000	1.051067
10.880000	1.042795
10.890000	1.036432
10.900000	1.022434
10.910000	1.026251
10.920000	1.036432
10.930000	1.045340
10.940000	1.054885
10.950000	1.056794
10.960000	1.047886
10.970000	1.042795
10.980000	1.038977
10.990000	1.044068
11.000000	1.058066
11.010000	1.070156
11.020000	1.078428
11.030000	1.082882
11.040000	1.071429
11.050000	1.066338
11.060000	1.068247
11.070000	1.076519
11.080000	1.087973
11.090000	1.101335
11.100000	1.105153
11.110000	1.105153
11.120000	1.100699
11.130000	1.092427
11.140000	1.096245
11.150000	1.101971
11.160000	1.109607
11.170000	1.119788
11.180000	1.117879
11.190000	1.114697
11.200000	1.108334
11.210000	1.099426
11.220000	1.097517
11.230000	1.102608
11.240000	1.103880
11.250000	1.109607
11.260000	1.109607
11.270000	1.101335
11.280000	1.094972
11.290000	1.085427
11.300000	1.080337
11.310000	1.083519
11.320000	1.082882
11.330000	1.082882
11.340000	1.085427
11.350000	1.076519
11.360000	1.067611
11.370000	1.061884
11.380000	1.054885
11.390000	1.057430
11.400000	1.062521
11.410000	1.060612
11.420000	1.059975
11.430000	1.057430
11.440000	1.050431
11.450000	1.048522
11.460000	1.045977
11.470000	1.051067
11.480000	1.059339
11.490000	1.062521
11.500000	1.062521
11.510000	1.061884
11.520000	1.056794
11.530000	1.058703
11.540000	1.067611
11.550000	1.070792
11.560000	1.079064
11.570000	1.087973
11.580000	1.086064
11.590000	1.087336
11.600000	1.086700
11.610000	1.087336
11.620000	1.096245
11.630000	1.107062
11.640000	1.112788
11.650000	1.119788
11.660000	1.117242
11.670000	1.113425
11.680000	1.115334
11.690000	1.114061
11.700000	1.118515
11.710000	1.128696
11.720000	1.132514
11.730000	1.133150
11.740000	1.128696
11.750000	1.121060
11.760000	1.118515
11.770000	1.117879
11.780000	1.115970
11.790000	1.123606
11.800000	1.123606
11.810000	1.117242
11.820000	1.114061
11.830000	1.103244
11.840000	1.093699
11.850000	1.091154
11.860000	1.087336
11.870000	1.087973
11.880000	1.091154
11.890000	1.082882
11.900000	1.075247
11.910000	1.065702
11.920000	1.052976
11.930000	1.049158
11.940000	1.049795
11.950000	1.049158
11.960000	1.052340
11.970000	1.049158
11.980000	1.037069
11.990000	1.033251
12.000000	1.024343
12.010000	1.019252
12.020000	1.025615
12.030000	1.028797
12.040000	1.030706
12.050000	1.031342
12.060000	1.026251
12.070000	1.024343
12.080000	1.021797
12.090000	1.023706
12.100000	1.029433
12.110000	1.037705
12.120000	1.042795
12.130000	1.047249
12.140000	1.044704
12.150000	1.043432
12.160000	1.049158
12.170000	1.055521
12.180000	1.062521
12.190000	1.076519
12.200000	1.077792
12.210000	1.080337
12.220000	1.086700
12.230000	1.082882
12.240000	1.091790
12.250000	1.100699
12.260000	1.108334
12.270000	1.116606
12.280000	1.122333
12.290000	1.120424
12.300000	1.123606
12.310000	1.124878
12.320000	1.127423
12.330000	1.136332
12.340000	1.141422
12.350000	1.145876
12.360000	1.151603
12.370000	1.143967
12.380000	1.143967
12.390000	1.145240
12.400000	1.141422
12.410000	1.146512
12.420000	1.151603
12.430000	1.149058
12.440000	1.149058
12.450000	1.144603
12.460000	1.134423
12.470000	1.135695
12.480000	1.131241
12.490000	1.128696
12.500000	1.131241
12.510000	1.124878
12.520000	1.118515
12.530000	1.112152
12.540000	1.100062
12.550000	1.096881
12.560000	1.094336
12.570000	1.088609
12.580000	1.088609
12.590000	1.080337
12.600000	1.070156
12.610000	1.066975
12.620000	1.059339
12.630000	1.051703
12.640000	1.053612
12.650000	1.050431
12.660000	1.043432
12.670000	1.040886
12.680000	1.032614
12.690000	1.028797
12.700000	1.026251
12.710000	1.022434
12.720000	1.024343
12.730000	1.026251
12.740000	1.021161
12.750000	1.020525
12.760000	1.018616
12.770000	1.016071
12.780000	1.020525
12.790000	1.022434
12.800000	1.024979
12.810000	1.032614
12.820000	1.031978
12.830000	1.030069
12.840000	1.035796
12.850000	1.033887
12.860000	1.038977
12.870000	1.051067
12.880000	1.059975
12.890000	1.067611
12.900000	1.073974
12.910000	1.072065
12.920000	1.075247
12.930000	1.077156
12.940000	1.080337
12.950000	1.094972
12.960000	1.108334
12.970000	1.114061
12.980000	1.120424
12.990000	1.118515
13.000000	1.117879
13.010000	1.121697
13.020000	1.126787
13.030000	1.136332
13.040000	1.143967
13.050000	1.149058
13.060000	1.150966
13.070000	1.147149
13.080000	1.139513
13.090000	1.139513
13.100000	1.143331
13.110000	1.147785
13.120000	1.156057
13.130000	1.155421
13.140000	1.148421
13.150000	1.139513
13.160000	1.130605
13.170000	1.124242
13.180000	1.122969
13.190000	1.124878
13.200000	1.124878
13.210000	1.121060
13.220000	1.108334
13.230000	1.100062
13.240000	1.090518
13.250000	1.082882
13.260000	1.080337
13.270000	1.077156
13.280000	1.073974
13.290000	1.069520
13.300000	1.058066
13.310000	1.047886
13.320000	1.044704
13.330000	1.036432
13.340000	1.031342
13.350000	1.031978
13.360000	1.027524
13.370000	1.029433
13.380000	1.023706
13.390000	1.010344
13.400000	0.999527
13.410000	0.993800
13.420000	0.993164
13.430000	1.003981
13.440000	1.013525
13.450000	1.017343
13.460000	1.014162
13.470000	0.999527
13.480000	0.982347
13.490000	0.981074
13.500000	0.986164
13.510000	1.003345
13.520000	1.022434
13.530000	1.030706
13.540000	1.029433
13.550000	1.019252
13.560000	1.002072
13.570000	0.999527
13.580000	1.012889
13.590000	1.033887
13.600000	1.060612
13.610000	1.075247
13.620000	1.072065
13.630000	1.061884
13.640000	1.045340
13.650000	1.041523
13.660000	1.060612
13.670000	1.085427
13.680000	1.112152
13.690000	1.127423
13.700000	1.120424
13.710000	1.105789
13.720000	1.094336
13.730000	1.092427
13.740000	1.108334
13.750000	1.133150
13.760000	1.152875
13.770000	1.166874
13.780000	1.154784
13.790000	1.138240
13.800000	1.129969
13.810000	1.124242
13.820000	1.131877
13.830000	1.151603
13.840000	1.164965
13.850000	1.171328
13.860000	1.164965
13.870000	1.146512
13.880000	1.129332
13.890000	1.119151
13.900000	1.118515
13.910000	1.136968
13.920000	1.146512
13.930000	1.143331
13.940000	1.138877
13.950000	1.123606
13.960000	1.091790
13.970000	1.078428
13.980000	1.073338
13.990000	1.082246
14.000000	1.094972
14.010000	1.100062
14.020000	1.091154
14.030000	1.070156
14.040000	1.042795
14.050000	1.024343
14.060000	1.019888
14.070000	1.029433
14.080000	1.045977
14.090000	1.054885
14.100000	1.047886
14.110000	1.027524
14.120000	1.005890
14.130000	0.989346
14.140000	0.991891
14.150000	1.005890
14.160000	1.024343
14.170000	1.044068
14.180000	1.037705
14.190000	1.024343
14.200000	1.010980
14.210000	0.995709
14.220000	1.005890
14.230000	1.027524
14.240000	1.051703
14.250000	1.073974
14.260000	1.077792
14.270000	1.068247
14.280000	1.057430
14.290000	1.050431
14.300000	1.054885
14.310000	1.082246
14.320000	1.108334
14.330000	1.128696
14.340000	1.136332
14.350000	1.130605
14.360000	1.116606
14.370000	1.108334
14.380000	1.108334
14.390000	1.130605
14.400000	1.157966
14.410000	1.171964
14.420000	1.184690
14.430000	1.171328
14.440000	1.148421
14.450000	1.133150
14.460000	1.126151
14.470000	1.140149
14.480000	1.169419
14.490000	1.185963
14.500000	1.188508
14.510000	1.164329
14.520000	1.132514
14.530000	1.108971
14.540000	1.101971
14.550000	1.114061
14.560000	1.137604
14.570000	1.150330
14.580000	1.144603
14.590000	1.119151
14.600000	1.087336
14.610000	1.061248
14.620000	1.056794
14.630000	1.066975
14.640000	1.086700
14.650000	1.103880
14.660000	1.093063
14.670000	1.070792
14.680000	1.042795
14.690000	1.019888
14.700000	1.019252
14.710000	1.033251
14.720000	1.053612
14.730000	1.067611
14.740000	1.063157
14.750000	1.039614
14.760000	1.020525
14.770000	1.005890
14.780000	1.007162
14.790000	1.026888
14.800000	1.043432
14.810000	1.057430
14.820000	1.060612
14.830000	1.044068
14.840000	1.025615
14.850000	1.018616
14.860000	1.020525
14.870000	1.038977
14.880000	1.061248
14.890000	1.073338
14.900000	1.075247
14.910000	1.063157
14.920000	1.045977
14.930000	1.043432
14.940000	1.048522
14.950000	1.065702
14.960000	1.088609
14.970000	1.098153
14.980000	1.093063
14.990000	1.086064
15.000000	1.071429
15.010000	1.065702
15.020000	1.074610
15.030000	1.090518
15.040000	1.108334
15.050000	1.114697
15.060000	1.106425
15.070000	1.097517
15.080000	1.084791
15.090000	1.080337
15.100000	1.093699
15.110000	1.105789
15.120000	1.115970
15.130000	1.121060
15.140000	1.111516
15.150000	1.098153
15.160000	1.089882
15.170000	1.086700
15.180000	1.096881
15.190000	1.107698
15.200000	1.112788
15.210000	1.112152
15.220000	1.103244
15.230000	1.091790
15.240000	1.087973
15.250000	1.087973
15.260000	1.094336
15.270000	1.102608
15.280000	1.103244
15.290000	1.102608
15.300000	1.096245
15.310000	1.087973
15.320000	1.081610
15.330000	1.084791
15.340000	1.087336
15.350000	1.093063
15.360000	1.098790
15.370000	1.093699
15.380000	1.086700
15.390000	1.082882
15.400000	1.072701
15.410000	1.080973
15.420000	1.086064
15.430000	1.088609
15.440000	1.094972
15.450000	1.089245
15.460000	1.078428
15.470000	1.073338
15.480000	1.066975
15.490000	1.073338
15.500000	1.080973
15.510000	1.081610
15.520000	1.081610
15.530000	1.077156
15.540000	1.065066
15.550000	1.059975
15.560000	1.060612
15.570000	1.064429
15.580000	1.071429
15.590000	1.072065
15.600000	1.066338
15.610000	1.061248
15.620000	1.052340
15.630000	1.049795
15.640000	1.053612
15.650000	1.058066
15.660000	1.061884
15.670000	1.063157
15.680000	1.057430
15.690000	1.054885
15.700000	1.052976
15.710000	1.049158
15.720000	1.056158
15.730000	1.061884
15.740000	1.065066
15.750000	1.070156
15.760000	1.068884
15.770000	1.065066
15.780000	1.066975
15.790000	1.066338
15.800000	1.070156
15.810000	1.077792
15.820000	1.084791
15.830000	1.087973
15.840000	1.093063
15.850000	1.091154
15.860000	1.088609
15.870000	1.093063
15.880000	1.092427
15.890000	1.102608
15.900000	1.105789
15.910000	1.110243
15.920000	1.117242
15.930000	1.114697
15.940000	1.110243
15.950000	1.110879
15.960000	1.110243
15.970000	1.114061
15.980000	1.126151
15.990000	1.128696
16.000000	1.128696
16.010000	1.125514
16.020000	1.113425
16.030000	1.112152
16.040000	1.110879
16.050000	1.114697
16.060000	1.123606
16.070000	1.124242
16.080000	1.118515
16.090000	1.110243
16.100000	1.098790
16.110000	1.090518
16.120000	1.093063
16.130000	1.092427
16.140000	1.093699
16.150000	1.093699
16.160000	1.084155
16.170000	1.072701
16.180000	1.066338
16.190000	1.055521
16.200000	1.052340
16.210000	1.054249
16.220000	1.051067
16.230000	1.049795
16.240000	1.045340
16.250000	1.033887
16.260000	1.027524
16.270000	1.016707
16.280000	1.015434
16.290000	1.018616
16.300000	1.018616
16.310000	1.018616
16.320000	1.017343
16.330000	1.009071
16.340000	1.003981
16.350000	1.001436
16.360000	1.000163
16.370000	1.005890
16.380000	1.013525
16.390000	1.016071
16.400000	1.019252
16.410000	1.017979
16.420000	1.014162
16.430000	1.018616
16.440000	1.022434
16.450000	1.030069
16.460000	1.042795
16.470000	1.049158
16.480000	1.052340
16.490000	1.056794
16.500000	1.055521
16.510000	1.063157
16.520000	1.073974
16.530000	1.084155
16.540000	1.097517
16.550000	1.102608
16.560000	1.103244
16.570000	1.105153
16.580000	1.108334
16.590000	1.114697
16.600000	1.130605
16.610000	1.138240
16.620000	1.143967
16.630000	1.150330
16.640000	1.145240
16.650000	1.143967
16.660000	1.149058
16.670000	1.151603
16.680000	1.162420
16.690000	1.166238
16.700000	1.163692
16.710000	1.161784
16.720000	1.156057
16.730000	1.148421
16.740000	1.152239
16.750000	1.152875
16.760000	1.153512
16.770000	1.155421
16.780000	1.145876
16.790000	1.136968
16.800000	1.129332
16.810000	1.117242
16.820000	1.114061
16.830000	1.113425
16.840000	1.108971
16.850000	1.107062
16.860000	1.099426
16.870000	1.084791
16.880000	1.075247
16.890000	1.066338
16.900000	1.060612
16.910000	1.061884
16.920000	1.056158
16.930000	1.050431
16.940000	1.047249
16.950000	1.035160
16.960000	1.024343
16.970000	1.024343
16.980000	1.019888
16.990000	1.021797
17.000000	1.024343
17.010000	1.017979
17.020000	1.014798
17.030000	1.009071
17.040000	1.002072
17.050000	1.005890
17.060000	1.009071
17.070000	1.014162
17.080000	1.021797
17.090000	1.023706
17.100000	1.016707
17.110000	1.023070
17.120000	1.021161
17.130000	1.026888
17.140000	1.040886
17.150000	1.045977
17.160000	1.056794
17.170000	1.059975
17.180000	1.059975
17.190000	1.063793
17.200000	1.067611
17.210000	1.073974
17.220000	1.089245
17.230000	1.099426
17.240000	1.103880
17.250000	1.110243
17.260000	1.109607
17.270000	1.108971
17.280000	1.118515
17.290000	1.122333
17.300000	1.131877
17.310000	1.140786
17.320000	1.140786
17.330000	1.142058
17.340000	1.143967
17.350000	1.138877
17.360000	1.142058
17.370000	1.147149
17.380000	1.148421
17.390000	1.150966
17.400000	1.149694
17.410000	1.145240
17.420000	1.145876
17.430000	1.139513
17.440000	1.136332
17.450000	1.139513
17.460000	1.133786
17.470000	1.133150
17.480000	1.131241
17.490000	1.122969
17.500000	1.115970
17.510000	1.112788
17.520000	1.105789
17.530000	1.108334
17.540000	1.105153
17.550000	1.100699
17.560000	1.098790
17.570000	1.087973
17.580000	1.079701
17.590000	1.079064
17.600000	1.075247
17.610000	1.073338
17.620000	1.078428
17.630000	1.071429
17.640000	1.066338
17.650000	1.060612
17.660000	1.054249
17.670000	1.052340
17.680000	1.056158
17.690000	1.054885
17.700000	1.056794
17.710000	1.052976
17.720000	1.045340
17.730000	1.044704
17.740000	1.042159
17.750000	1.040250
17.760000	1.046613
17.770000	1.042795
17.780000	1.044704
17.790000	1.044068
17.800000	1.038977
17.810000	1.037705
17.820000	1.037069
17.830000	1.037069
17.840000	1.039614
17.850000	1.045977
17.860000	1.040886
17.870000	1.043432
17.880000	1.040886
17.890000	1.040250
17.900000	1.044704
17.910000	1.044068
17.920000	1.045977
17.930000	1.052976
17.940000	1.051067
17.950000	1.049795
17.960000	1.053612
17.970000	1.052340
17.980000	1.056794
17.990000	1.063157
18.000000	1.065066
18.010000	1.070156
18.020000	1.070156
18.030000	1.068247
18.040000	1.075247
18.050000	1.080337
18.060000	1.082246
18.070000	1.090518
18.080000	1.093063
18.090000	1.096245
18.100000	1.101335
18.110000	1.100062
18.120000	1.101971
18.130000	1.108334
18.140000	1.108334
18.150000	1.114697
18.160000	1.119151
18.170000	1.117879
18.180000	1.122333
18.190000	1.122333
18.200000	1.116606
18.210000	1.120424
18.220000	1.124878
18.230000	1.126787
18.240000	1.131241
18.250000	1.128060
18.260000	1.123606
18.270000	1.119151
18.280000	1.114697
18.290000	1.114061
18.300000	1.117879
18.310000	1.116606
18.320000	1.116606
18.330000	1.114697
18.340000	1.103244
18.350000	1.097517
18.360000	1.091790
18.370000	1.087973
18.380000	1.090518
18.390000	1.089882
18.400000	1.087973
18.410000	1.084155
18.420000	1.075247
18.430000	1.066975
18.440000	1.061884
18.450000	1.059975
18.460000	1.059975
18.470000	1.063793
18.480000	1.058703
18.490000	1.054885
18.500000	1.050431
18.510000	1.041523
18.520000	1.042159
18.530000	1.044704
18.540000	1.044068
18.550000	1.047886
18.560000	1.045977
18.570000	1.042795
18.580000	1.046613
18.590000	1.042159
18.600000	1.043432
18.610000	1.048522
18.620000	1.051067
18.630000	1.052976
18.640000	1.058066
18.650000	1.058066
18.660000	1.058703
18.670000	1.062521
18.680000	1.062521
18.690000	1.067611
18.700000	1.072701
18.710000	1.076519
18.720000	1.080337
18.730000	1.083519
18.740000	1.082882
18.750000	1.086064
18.760000	1.086700
18.770000	1.091790
18.780000	1.100699
18.790000	1.100699
18.800000	1.099426
18.810000	1.101335
18.820000	1.098790
18.830000	1.100062
18.840000	1.105153
18.850000	1.103244
18.860000	1.107698
18.870000	1.105789
18.880000	1.100699
18.890000	1.100062
18.900000	1.093699
18.910000	1.093063
18.920000	1.095608
18.930000	1.091790
18.940000	1.092427
18.950000	1.089882
18.960000	1.082246
18.970000	1.079064
18.980000	1.074610
18.990000	1.068884
19.000000	1.070156
19.010000	1.071429
19.020000	1.066975
19.030000	1.066975
19.040000	1.061248
19.050000	1.056158
19.060000	1.054249
19.070000	1.050431
19.080000	1.048522
19.090000	1.051703
19.100000	1.049795
19.110000	1.047249
19.120000	1.048522
19.130000	1.044704
19.140000	1.046613
19.150000	1.045977
19.160000	1.047249
19.170000	1.051067
19.180000	1.053612
19.190000	1.052340
19.200000	1.055521
19.210000	1.056158
19.220000	1.057430
19.230000	1.065066
19.240000	1.066975
19.250000	1.069520
19.260000	1.077156
19.270000	1.077792
19.280000	1.078428
19.290000	1.083519
19.300000	1.084791
19.310000	1.089882
19.320000	1.095608
19.330000	1.099426
19.340000	1.107698
19.350000	1.108334
19.360000	1.107062
19.370000	1.110879
19.380000	1.112788
19.390000	1.112152
19.400000	1.119788
19.410000	1.120424
19.420000	1.122969
19.430000	1.126151
19.440000	1.122333
19.450000	1.122969
19.460000	1.124878
19.470000	1.122333
19.480000	1.126151
19.490000	1.126151
19.500000	1.122333
19.510000	1.119788
19.520000	1.118515
19.530000	1.113425
19.540000	1.115970
19.550000	1.113425
19.560000	1.107698
19.570000	1.108334
19.580000	1.100699
19.590000	1.097517
19.600000	1.094972
19.610000	1.087973
19.620000	1.086064
19.630000	1.087336
19.640000	1.080337
19.650000	1.078428
19.660000	1.075883
19.670000	1.068884
19.680000	1.066975
19.690000	1.063793
19.700000	1.059975
19.710000	1.061248
19.720000	1.058066
19.730000	1.054885
19.740000	1.056158
19.750000	1.051067
19.760000	1.050431
19.770000	1.049158
19.780000	1.046613
19.790000	1.047249
19.800000	1.051067
19.810000	1.047249
19.820000	1.050431
19.830000	1.050431
19.840000	1.047886
19.850000	1.052976
19.860000	1.052976
19.870000	1.053612
19.880000	1.061248
19.890000	1.061248
19.900000	1.062521
19.910000	1.068247
19.920000	1.067611
19.930000	1.067611
19.940000	1.075883
19.950000	1.077792
19.960000	1.082882
19.970000	1.086700
19.980000	1.086700
19.990000	1.090518
20.000000	1.092427
20.010000	1.093699
20.020000	1.101971
20.030000	1.103244
20.040000	1.107062
20.050000	1.112788
20.060000	1.112152
20.070000	1.110879
20.080000	1.116606
20.090000	1.115334
20.100000	1.117242
20.110000	1.123606
20.120000	1.121060
20.130000	1.122333
20.140000	1.122969
20.150000	1.119788
20.160000	1.122333
20.170000	1.122333
20.180000	1.120424
20.190000	1.123606
20.200000	1.122969
20.210000	1.118515
20.220000	1.120424
20.230000	1.114061
20.240000	1.110879
20.250000	1.110243
20.260000	1.107698
20.270000	1.107698
20.280000	1.106425
20.290000	1.102608
20.300000	1.100062
20.310000	1.096245
20.320000	1.088609
20.330000	1.089245
20.340000	1.082882
20.350000	1.080337
20.360000	1.082246
20.370000	1.077792
20.380000	1.072065
20.390000	1.071429
20.400000	1.065066
20.410000	1.058703
20.420000	1.059339
20.430000	1.054885
20.440000	1.054249
20.450000	1.054249
20.460000	1.049158
20.470000	1.046613
20.480000	1.042795
20.490000	1.034523
20.500000	1.035160
20.510000	1.035160
20.520000	1.031978
20.530000	1.033887
20.540000	1.033887
20.550000	1.029433
20.560000	1.028160
20.570000	1.021797
20.580000	1.021797
20.590000	1.026251
20.600000	1.027524
20.610000	1.031342
20.620000	1.032614
20.630000	1.028797
20.640000	1.028160
20.650000	1.028160
20.660000	1.026888
20.670000	1.033887
20.680000	1.040886
20.690000	1.044704
20.700000	1.049795
20.710000	1.048522
20.720000	1.045977
20.730000	1.049795
20.740000	1.052340
20.750000	1.057430
20.760000	1.069520
20.770000	1.075247
20.780000	1.079701
20.790000	1.082882
20.800000	1.079701
20.810000	1.082246
20.820000	1.086700
20.830000	1.092427
20.840000	1.104516
20.850000	1.111516
20.860000	1.112788
20.870000	1.114061
20.880000	1.114697
20.890000	1.113425
20.900000	1.119151
20.910000	1.121697
20.920000	1.129969
20.930000	1.137604
20.940000	1.136332
20.950000	1.135059
20.960000	1.134423
20.970000	1.128060
20.980000	1.130605
20.990000	1.133786
21.000000	1.135695
21.010000	1.142695
21.020000	1.150330
21.030000	1.131241
21.040000	1.138240
21.050000	1.121697
21.060000	1.119151
21.070000	1.118515
21.080000	1.114061
21.090000	1.120424
21.100000	1.114061
21.110000	1.110879
21.120000	1.104516
21.130000	1.096881
21.140000	1.086064
21.150000	1.085427
21.160000	1.080337
21.170000	1.082246
21.180000	1.075247
21.190000	1.077156
21.200000	1.064429
21.210000	1.060612
21.220000	1.052340
21.230000	1.045977
21.240000	1.045977
21.250000	1.040886
21.260000	1.037069
21.270000	1.042159
21.280000	1.035160
21.290000	1.030706
21.300000	1.026251
21.310000	1.018616
21.320000	1.020525
21.330000	1.021797
21.340000	1.021797
21.350000	1.025615
21.360000	1.025615
21.370000	1.023070
21.380000	1.025615
21.390000	1.019252
21.400000	1.021161
21.410000	1.024979
21.420000	1.030706
21.430000	1.033887
21.440000	1.042159
21.450000	1.041523
21.460000	1.046613
21.470000	1.044704
21.480000	1.047886
21.490000	1.052976
21.500000	1.061248
21.510000	1.066975
21.520000	1.077156
21.530000	1.082246
21.540000	1.082246
21.550000	1.087336
21.560000	1.087336
21.570000	1.089882
21.580000	1.102608
21.590000	1.110243
21.600000	1.116606
21.610000	1.123606
21.620000	1.117879
21.630000	1.121697
21.640000	1.122969
21.650000	1.123606
21.660000	1.134423
21.670000	1.138877
21.680000	1.139513
21.690000	1.145876
21.700000	1.139513
21.710000	1.138877
21.720000	1.138877
21.730000	1.137604
21.740000	1.140786
21.750000	1.147785
21.760000	1.143967
21.770000	1.142695
21.780000	1.136332
21.790000	1.129332
21.800000	1.127423
21.810000	1.130605
21.820000	1.127423
21.830000	1.129969
21.840000	1.125514
21.850000	1.117242
21.860000	1.110879
21.870000	1.103880
21.880000	1.098153
21.890000	1.099426
21.900000	1.096881
21.910000	1.094972
21.920000	1.092427
21.930000	1.080337
21.940000	1.072065
21.950000	1.069520
21.960000	1.062521
21.970000	1.063793
21.980000	1.062521
21.990000	1.058066
22.000000	1.057430
22.010000	1.047249
22.020000	1.038341
22.030000	1.037705
22.040000	1.037069
22.050000	1.037069
22.060000	1.040886
22.070000	1.037069
22.080000	1.032614
22.090000	1.030706
22.100000	1.022434
22.110000	1.024343
22.120000	1.028160
22.130000	1.031978
22.140000	1.034523
22.150000	1.035796
22.160000	1.030069
22.170000	1.029433
22.180000	1.029433
22.190000	1.031342
22.200000	1.040886
22.210000	1.047886
22.220000	1.051703
22.230000	1.054885
22.240000	1.051703
22.250000	1.051703
22.260000	1.057430
22.270000	1.058703
22.280000	1.069520
22.290000	1.078428
22.300000	1.080337
22.310000	1.084155
22.320000	1.084155
22.330000	1.084155
22.340000	1.089882
22.350000	1.096245
22.360000	1.104516
22.370000	1.113425
22.380000	1.114697
22.390000	1.114061
22.400000	1.114697
22.410000	1.110879
22.420000	1.115334
22.430000	1.124242
22.440000	1.128060
22.450000	1.133786
22.460000	1.135695
22.470000	1.131877
22.480000	1.128060
22.490000	1.126151
22.500000	1.126151
22.510000	1.135059
22.520000	1.135059
22.530000	1.133786
22.540000	1.135695
22.550000	1.124242
22.560000	1.119788
22.570000	1.119151
22.580000	1.116606
22.590000	1.117879
22.600000	1.117879
22.610000	1.113425
22.620000	1.108334
22.630000	1.103244
22.640000	1.094336
22.650000	1.089882
22.660000	1.088609
22.670000	1.087336
22.680000	1.087973
22.690000	1.082882
22.700000	1.073338
22.710000	1.066975
22.720000	1.059339
22.730000	1.056158
22.740000	1.058703
22.750000	1.054885
22.760000	1.053612
22.770000	1.052976
22.780000	1.045340
22.790000	1.037705
22.800000	1.034523
22.810000	1.033887
22.820000	1.035796
22.830000	1.038341
22.840000	1.037069
22.850000	1.037069
22.860000	1.030069
22.870000	1.026888
22.880000	1.031342
22.890000	1.030706
22.900000	1.034523
22.910000	1.042795
22.920000	1.040886
22.930000	1.040886
22.940000	1.042159
22.950000	1.038977
22.960000	1.044068
22.970000	1.051067
22.980000	1.052340
22.990000	1.061248
23.000000	1.065702
23.010000	1.063793
23.020000	1.066338
23.030000	1.067611
23.040000	1.071429
23.050000	1.080337
23.060000	1.086064
23.070000	1.092427
23.080000	1.094972
23.090000	1.093063
23.100000	1.094972
23.110000	1.098153
23.120000	1.100699
23.130000	1.109607
23.140000	1.114061
23.150000	1.115334
23.160000	1.118515
23.170000	1.116606
23.180000	1.114697
23.190000	1.118515
23.200000	1.116606
23.210000	1.122333
23.220000	1.126151
23.230000	1.124242
23.240000	1.122969
23.250000	1.121060
23.260000	1.115334
23.270000	1.115970
23.280000	1.117879
23.290000	1.115970
23.300000	1.117879
23.310000	1.115970
23.320000	1.107062
23.330000	1.105789
23.340000	1.099426
23.350000	1.095608
23.360000	1.098153
23.370000	1.096245
23.380000	1.092427
23.390000	1.090518
23.400000	1.082246
23.410000	1.075883
23.420000	1.073338
23.430000	1.067611
23.440000	1.068247
23.450000	1.067611
23.460000	1.063793
23.470000	1.062521
23.480000	1.056158
23.490000	1.047886
23.500000	1.048522
23.510000	1.046613
23.520000	1.044068
23.530000	1.049795
23.540000	1.043432
23.550000	1.042159
23.560000	1.038341
23.570000	1.035160
23.580000	1.034523
23.590000	1.039614
23.600000	1.038977
23.610000	1.040886
23.620000	1.042795
23.630000	1.038341
23.640000	1.038977
23.650000	1.040886
23.660000	1.042159
23.670000	1.051067
23.680000	1.054249
23.690000	1.056158
23.700000	1.059975
23.710000	1.057430
23.720000	1.061248
23.730000	1.066338
23.740000	1.069520
23.750000	1.077156
23.760000	1.084791
23.770000	1.084155
23.780000	1.089882
23.790000	1.091790
23.800000	1.091790
23.810000	1.096881
23.820000	1.103244
23.830000	1.108334
23.840000	1.116606
23.850000	1.117879
23.860000	1.117879
23.870000	1.120424
23.880000	1.118515
23.890000	1.122333
23.900000	1.128696
23.910000	1.131241
23.920000	1.133786
23.930000	1.135059
23.940000	1.128696
23.950000	1.129332
23.960000	1.128060
23.970000	1.126151
23.980000	1.128060
23.990000	1.128060
24.000000	1.124878
24.010000	1.123606
24.020000	1.117242
24.030000	1.109607
24.040000	1.107698
24.050000	1.100699
24.060000	1.098153
24.070000	1.098153
24.080000	1.091154
24.090000	1.085427
24.100000	1.078428
24.110000	1.068247
24.120000	1.065066
24.130000	1.062521
24.140000	1.054885
24.150000	1.052976
24.160000	1.049158
24.170000	1.040250
24.180000	1.037069
24.190000	1.030706
24.200000	1.026251
24.210000	1.024343
24.220000	1.023070
24.230000	1.022434
24.240000	1.021797
24.250000	1.017343
24.260000	1.016707
24.270000	1.016707
24.280000	1.013525
24.290000	1.017979
24.300000	1.022434
24.310000	1.021161
24.320000	1.026251
24.330000	1.029433
24.340000	1.032614
24.350000	1.037705
24.360000	1.040886
24.370000	1.045977
24.380000	1.055521
24.390000	1.059339
24.400000	1.068247
24.410000	1.076519
24.420000	1.079064
24.430000	1.085427
24.440000	1.095608
24.450000	1.101335
24.460000	1.109607
24.470000	1.115334
24.480000	1.120424
24.490000	1.129332
24.500000	1.133150
24.510000	1.135695
24.520000	1.144603
24.530000	1.147785
24.540000	1.152239
24.550000	1.157329
24.560000	1.156693
24.570000	1.159875
24.580000	1.161784
24.590000	1.158602
24.600000	1.161784
24.610000	1.159238
24.620000	1.157966
24.630000	1.158602
24.640000	1.155421
24.650000	1.147785
24.660000	1.144603
24.670000	1.137604
24.680000	1.129969
24.690000	1.128060
24.700000	1.121060
24.710000	1.115970
24.720000	1.110879
24.730000	1.100699
24.740000	1.091154
24.750000	1.084155
24.760000	1.073338
24.770000	1.068247
24.780000	1.062521
24.790000	1.051703
24.800000	1.047249
24.810000	1.040886
24.820000	1.028797
24.830000	1.024343
24.840000	1.017979
24.850000	1.011616
24.860000	1.012253
24.870000	1.005890
24.880000	1.003345
24.890000	1.001436
24.900000	0.996345
24.910000	0.993800
24.920000	0.994436
24.930000	0.991255
24.940000	0.995709
24.950000	0.999527
24.960000	1.000163
24.970000	1.002072
24.980000	1.006526
24.990000	1.007799
25.000000	1.016707
25.010000	1.020525
25.020000	1.027524
25.030000	1.036432
25.040000	1.042159
25.050000	1.047886
25.060000	1.057430
25.070000	1.061248
25.080000	1.068884
25.090000	1.080337
25.100000	1.086064
25.110000	1.096881
25.120000	1.103244
25.130000	1.107698
25.140000	1.118515
25.150000	1.122333
25.160000	1.128060
25.170000	1.136968
25.180000	1.140149
25.190000	1.144603
25.200000	1.150966
25.210000	1.151603
25.220000	1.156693
25.230000	1.159875
25.240000	1.159875
25.250000	1.163056
25.260000	1.165601
25.270000	1.163692
25.280000	1.163692
25.290000	1.161147
25.300000	1.159238
25.310000	1.157966
25.320000	1.154784
25.330000	1.147785
25.340000	1.147785
25.350000	1.141422
25.360000	1.133786
25.370000	1.133786
25.380000	1.122969
25.390000	1.120424
25.400000	1.114697
25.410000	1.104516
25.420000	1.098153
25.430000	1.094336
25.440000	1.082882
25.450000	1.082882
25.460000	1.073338
25.470000	1.066975
25.480000	1.063157
25.490000	1.054885
25.500000	1.047886
25.510000	1.046613
25.520000	1.039614
25.530000	1.037069
25.540000	1.036432
25.550000	1.029433
25.560000	1.026251
25.570000	1.023706
25.580000	1.017979
25.590000	1.020525
25.600000	1.019888
25.610000	1.016707
25.620000	1.021797
25.630000	1.018616
25.640000	1.017343
25.650000	1.023070
25.660000	1.023070
25.670000	1.024343
25.680000	1.029433
25.690000	1.031342
25.700000	1.034523
25.710000	1.040886
25.720000	1.041523
25.730000	1.045340
25.740000	1.049158
25.750000	1.054249
25.760000	1.059339
25.770000	1.067611
25.780000	1.070156
25.790000	1.075883
25.800000	1.079064
25.810000	1.080973
25.820000	1.089245
25.830000	1.091154
25.840000	1.095608
25.850000	1.103244
25.860000	1.102608
25.870000	1.108334
25.880000	1.114061
25.890000	1.113425
25.900000	1.116606
25.910000	1.119788
25.920000	1.117879
25.930000	1.123606
25.940000	1.126151
25.950000	1.123606
25.960000	1.128060
25.970000	1.126151
25.980000	1.127423
25.990000	1.129332
26.000000	1.127423
26.010000	1.124242
26.020000	1.125514
26.030000	1.121060
26.040000	1.121697
26.050000	1.122333
26.060000	1.115970
26.070000	1.115970
26.080000	1.114061
26.090000	1.107062
26.100000	1.104516
26.110000	1.101971
26.120000	1.098153
26.130000	1.098790
26.140000	1.093699
26.150000	1.091154
26.160000	1.087336
26.170000	1.081610
26.180000	1.073338
26.190000	1.073338
26.200000	1.069520
26.210000	1.069520
26.220000	1.070792
26.230000	1.062521
26.240000	1.061248
26.250000	1.056794
26.260000	1.049158
26.270000	1.048522
26.280000	1.048522
26.290000	1.045977
26.300000	1.051703
26.310000	1.044704
26.320000	1.042159
26.330000	1.038341
26.340000	1.032614
26.350000	1.030706
26.360000	1.036432
26.370000	1.035796
26.380000	1.038341
26.390000	1.040250
26.400000	1.032614
26.410000	1.030069
26.420000	1.030069
26.430000	1.029433
26.440000	1.038977
26.450000	1.044068
26.460000	1.044068
26.470000	1.045340
26.480000	1.040250
26.490000	1.034523
26.500000	1.037705
26.510000	1.044068
26.520000	1.051067
26.530000	1.062521
26.540000	1.061248
26.550000	1.061248
26.560000	1.060612
26.570000	1.057430
26.580000	1.062521
26.590000	1.070156
26.600000	1.078428
26.610000	1.091790
26.620000	1.092427
26.630000	1.087336
26.640000	1.086700
26.650000	1.086064
26.660000	1.091154
26.670000	1.103880
26.680000	1.112788
26.690000	1.118515
26.700000	1.120424
26.710000	1.114697
26.720000	1.110879
26.730000	1.110243
26.740000	1.112788
26.750000	1.125514
26.760000	1.134423
26.770000	1.138240
26.780000	1.140786
26.790000	1.131877
26.800000	1.122969
26.810000	1.123606
26.820000	1.126151
26.830000	1.135695
26.840000	1.145876
26.850000	1.141422
26.860000	1.135059
26.870000	1.126151
26.880000	1.114061
26.890000	1.114061
26.900000	1.119151
26.910000	1.123606
26.920000	1.131241
26.930000	1.124878
26.940000	1.108971
26.950000	1.098790
26.960000	1.089882
26.970000	1.087336
26.980000	1.095608
26.990000	1.096881
27.000000	1.096881
27.010000	1.088609
27.020000	1.073974
27.030000	1.063793
27.040000	1.056158
27.050000	1.056158
27.060000	1.061884
27.070000	1.065066
27.080000	1.061248
27.090000	1.054885
27.100000	1.042795
27.110000	1.032614
27.120000	1.033251
27.130000	1.033251
27.140000	1.037705
27.150000	1.044704
27.160000	1.043432
27.170000	1.037069
27.180000	1.031342
27.190000	1.023706
27.200000	1.022434
27.210000	1.032614
27.220000	1.039614
27.230000	1.049158
27.240000	1.049158
27.250000	1.042795
27.260000	1.040886
27.270000	1.038341
27.280000	1.042159
27.290000	1.056794
27.300000	1.067611
27.310000	1.072701
27.320000	1.077156
27.330000	1.070156
27.340000	1.066975
27.350000	1.070156
27.360000	1.078428
27.370000	1.091790
27.380000	1.103880
27.390000	1.108334
27.400000	1.108971
27.410000	1.105789
27.420000	1.101335
27.430000	1.107062
27.440000	1.115334
27.450000	1.125514
27.460000	1.135695
27.470000	1.133786
27.480000	1.129969
27.490000	1.125514
27.500000	1.120424
27.510000	1.127423
27.520000	1.133786
27.530000	1.136968
27.540000	1.139513
27.550000	1.138240
27.560000	1.127423
27.570000	1.123606
27.580000	1.118515
27.590000	1.119151
27.600000	1.124878
27.610000	1.123606
27.620000	1.119151
27.630000	1.114697
27.640000	1.101335
27.650000	1.093699
27.660000	1.093699
27.670000	1.089882
27.680000	1.091790
27.690000	1.091790
27.700000	1.081610
27.710000	1.076519
27.720000	1.070156
27.730000	1.058703
27.740000	1.061248
27.750000	1.058066
27.760000	1.057430
27.770000	1.057430
27.780000	1.052976
27.790000	1.045340
27.800000	1.042159
27.810000	1.035160
27.820000	1.035796
27.830000	1.039614
27.840000	1.038341
27.850000	1.040250
27.860000	1.040250
27.870000	1.033887
27.880000	1.033251
27.890000	1.034523
27.900000	1.035160
27.910000	1.042795
27.920000	1.045977
27.930000	1.045340
27.940000	1.049158
27.950000	1.048522
27.960000	1.047249
27.970000	1.054885
27.980000	1.057430
27.990000	1.064429
28.000000	1.072701
28.010000	1.072065
28.020000	1.073338
28.030000	1.077156
28.040000	1.078428
28.050000	1.084155
28.060000	1.091154
28.070000	1.095608
28.080000	1.101335
28.090000	1.103244
28.100000	1.101971
28.110000	1.105789
28.120000	1.105789
28.130000	1.110243
28.140000	1.118515
28.150000	1.118515
28.160000	1.119788
28.170000	1.119151
28.180000	1.114061
28.190000	1.117242
28.200000	1.119788
28.210000	1.121060
28.220000	1.122969
28.230000	1.121060
28.240000	1.117242
28.250000	1.115334
28.260000	1.110879
28.270000	1.108971
28.280000	1.110879
28.290000	1.108334
28.300000	1.106425
28.310000	1.107698
28.320000	1.098790
28.330000	1.093699
28.340000	1.091790
28.350000	1.085427
28.360000	1.084791
28.370000	1.084791
28.380000	1.078428
28.390000	1.078428
28.400000	1.073974
28.410000	1.066338
28.420000	1.066975
28.430000	1.062521
28.440000	1.058703
28.450000	1.062521
28.460000	1.058066
28.470000	1.054885
28.480000	1.053612
28.490000	1.048522
28.500000	1.047249
28.510000	1.047886
28.520000	1.046613
28.530000	1.046613
28.540000	1.049158
28.550000	1.044704
28.560000	1.046613
28.570000	1.045977
28.580000	1.043432
28.590000	1.048522
28.600000	1.049158
28.610000	1.050431
28.620000	1.054885
28.630000	1.054885
28.640000	1.054249
28.650000	1.058703
28.660000	1.058703
28.670000	1.061884
28.680000	1.068247
28.690000	1.067611
28.700000	1.072065
28.710000	1.073338
28.720000	1.072701
28.730000	1.078428
28.740000	1.080337
28.750000	1.082882
28.760000	1.087336
28.770000	1.089245
28.780000	1.089882
28.790000	1.097517
28.800000	1.096881
28.810000	1.096881
28.820000	1.103244
28.830000	1.098153
28.840000	1.100699
28.850000	1.105789
28.860000	1.103244
28.870000	1.108334
28.880000	1.107698
28.890000	1.107698
28.900000	1.108334
28.910000	1.105789
28.920000	1.101971
28.930000	1.106425
28.940000	1.104516
28.950000	1.101335
28.960000	1.103244
28.970000	1.098153
28.980000	1.094336
28.990000	1.093699
29.000000	1.089882
29.010000	1.089245
29.020000	1.088609
29.030000	1.084155
29.040000	1.081610
29.050000	1.078428
29.060000	1.073974
29.070000	1.072701
29.080000	1.068247
29.090000	1.066975
29.100000	1.066975
29.110000	1.061884
29.120000	1.059975
29.130000	1.059975
29.140000	1.054885
29.150000	1.050431
29.160000	1.051067
29.170000	1.049795
29.180000	1.049158
29.190000	1.049158
29.200000	1.045977
29.210000	1.049795
29.220000	1.047886
29.230000	1.044704
29.240000	1.048522
29.250000	1.049158
29.260000	1.048522
29.270000	1.053612
29.280000	1.053612
29.290000	1.054885
29.300000	1.057430
29.310000	1.054885
29.320000	1.060612
29.330000	1.067611
29.340000	1.070156
29.350000	1.075247
29.360000	1.078428
29.370000	1.077156
29.380000	1.079701
29.390000	1.082882
29.400000	1.086700
29.410000	1.095608
29.420000	1.098790
29.430000	1.100699
29.440000	1.105153
29.450000	1.103880
29.460000	1.105789
29.470000	1.110879
29.480000	1.112788
29.490000	1.118515
29.500000	1.121060
29.510000	1.119151
29.520000	1.122333
29.530000	1.121060
29.540000	1.117879
29.550000	1.124242
29.560000	1.121060
29.570000	1.122969
29.580000	1.126151
29.590000	1.123606
29.600000	1.117879
29.610000	1.118515
29.620000	1.111516
29.630000	1.112788
29.640000	1.110879
29.650000	1.108971
29.660000	1.108334
29.670000	1.105153
29.680000	1.098153
29.690000	1.096245
29.700000	1.091790
29.710000	1.087336
29.720000	1.087336
29.730000	1.084155
29.740000	1.082246
29.750000	1.078428
29.760000	1.075247
29.770000	1.066975
29.780000	1.068247
29.790000	1.061884
29.800000	1.062521
29.810000	1.065066
29.820000	1.057430
29.830000	1.058703
29.840000	1.055521
29.850000	1.051703
29.860000	1.052340
29.870000	1.050431
29.880000	1.051703
29.890000	1.055521
29.900000	1.054249
29.910000	1.053612
29.920000	1.054885
29.930000	1.052340
29.940000	1.055521
29.950000	1.058703
29.960000	1.059339
29.970000	1.063793
29.980000	1.067611
29.990000	1.064429
30.000000	1.068247
30.010000	1.071429
30.020000	1.071429
30.030000	1.077792
30.040000	1.081610
30.050000	1.081610
30.060000	1.087336
30.070000	1.087973
30.080000	1.086700
30.090000	1.092427
30.100000	1.093063
30.110000	1.093699
30.120000	1.100699
30.130000	1.099426
30.140000	1.103880
30.150000	1.103880
30.160000	1.101335
30.170000	1.103880
30.180000	1.105789
30.190000	1.105153
30.200000	1.108334
30.210000	1.111516
30.220000	1.106425
30.230000	1.110243
30.240000	1.104516
30.250000	1.102608
30.260000	1.107062
30.270000	1.104516
30.280000	1.105153
30.290000	1.108334
30.300000	1.102608
30.310000	1.101971
30.320000	1.100062
30.330000	1.094336
30.340000	1.095608
30.350000	1.093699
30.360000	1.091154
30.370000	1.093699
30.380000	1.089882
30.390000	1.084155
30.400000	1.086064
30.410000	1.079701
30.420000	1.079064
30.430000	1.081610
30.440000	1.077156
30.450000	1.077792
30.460000	1.078428
30.470000	1.072701
30.480000	1.071429
30.490000	1.070792
30.500000	1.066975
30.510000	1.070156
30.520000	1.070156
30.530000	1.067611
30.540000	1.069520
30.550000	1.066975
30.560000	1.062521
30.570000	1.065066
30.580000	1.062521
30.590000	1.062521
30.600000	1.068247
30.610000	1.064429
30.620000	1.065702
30.630000	1.067611
30.640000	1.061884
30.650000	1.059975
30.660000	1.065066
30.670000	1.062521
30.680000	1.068247
30.690000	1.065702
30.700000	1.065066
30.710000	1.067611
30.720000	1.064429
30.730000	1.062521
30.740000	1.065702
30.750000	1.063157
30.760000	1.066338
30.770000	1.070792
30.780000	1.067611
30.790000	1.065702
30.800000	1.066338
30.810000	1.065066
30.820000	1.067611
30.830000	1.068247
30.840000	1.068247
30.850000	1.070792
30.860000	1.071429
30.870000	1.069520
30.880000	1.069520
30.890000	1.068884
30.900000	1.069520
30.910000	1.075247
30.920000	1.073338
30.930000	1.075883
30.940000	1.079064
30.950000	1.072701
30.960000	1.074610
30.970000	1.077156
30.980000	1.076519
30.990000	1.082882
31.000000	1.084791
31.010000	1.084155
31.020000	1.087973
31.030000	1.086700
31.040000	1.084791
31.050000	1.089882
31.060000	1.089882
31.070000	1.093699
31.080000	1.098153
31.090000	1.093699
31.100000	1.094336
31.110000	1.099426
31.120000	1.096245
31.130000	1.098153
31.140000	1.101335
31.150000	1.099426
31.160000	1.102608
31.170000	1.102608
31.180000	1.098153
31.190000	1.102608
31.200000	1.101971
31.210000	1.100062
31.220000	1.103244
31.230000	1.099426
31.240000	1.098790
31.250000	1.098790
31.260000	1.093699
31.270000	1.093063
31.280000	1.091154
31.290000	1.089882
31.300000	1.091154
31.310000	1.090518
31.320000	1.080973
31.330000	1.081610
31.340000	1.077792
31.350000	1.072701
31.360000	1.072065
31.370000	1.071429
31.380000	1.068247
31.390000	1.067611
31.400000	1.061248
31.410000	1.056794
31.420000	1.056158
31.430000	1.051703
31.440000	1.053612
31.450000	1.054249
31.460000	1.049158
31.470000	1.049158
31.480000	1.045977
31.490000	1.038977
31.500000	1.041523
31.510000	1.042159
31.520000	1.042159
31.530000	1.047249
31.540000	1.044704
31.550000	1.043432
31.560000	1.044704
31.570000	1.039614
31.580000	1.042159
31.590000	1.047886
31.600000	1.052340
31.610000	1.058703
31.620000	1.061884
31.630000	1.058703
31.640000	1.061884
31.650000	1.061884
31.660000	1.065066
31.670000	1.074610
31.680000	1.080337
31.690000	1.087973
31.700000	1.094336
31.710000	1.094336
31.720000	1.091790
31.730000	1.094336
31.740000	1.098153
31.750000	1.105789
31.760000	1.117242
31.770000	1.121697
31.780000	1.127423
31.790000	1.125514
31.800000	1.120424
31.810000	1.119788
31.820000	1.122333
31.830000	1.128060
31.840000	1.138240
31.850000	1.139513
31.860000	1.138877
31.870000	1.135695
31.880000	1.128060
31.890000	1.122969
31.900000	1.126151
31.910000	1.127423
31.920000	1.130605
31.930000	1.132514
31.940000	1.124242
31.950000	1.118515
31.960000	1.108971
31.970000	1.100062
31.980000	1.098153
31.990000	1.098790
32.000000	1.096881
32.010000	1.099426
32.020000	1.090518
32.030000	1.081610
32.040000	1.072701
32.050000	1.059975
32.060000	1.057430
32.070000	1.059339
32.080000	1.059975
32.090000	1.061248
32.100000	1.058066
32.110000	1.044704
32.120000	1.037069
32.130000	1.031342
32.140000	1.027524
32.150000	1.034523
32.160000	1.036432
32.170000	1.035796
32.180000	1.037705
32.190000	1.030706
32.200000	1.025615
32.210000	1.024343
32.220000	1.024343
32.230000	1.031342
32.240000	1.041523
32.250000	1.044704
32.260000	1.045340
32.270000	1.046613
32.280000	1.042159
32.290000	1.046613
32.300000	1.052976
32.310000	1.059975
32.320000	1.072065
32.330000	1.077792
32.340000	1.080973
32.350000	1.082246
32.360000	1.082882
32.370000	1.087336
32.380000	1.098153
32.390000	1.105789
32.400000	1.111516
32.410000	1.120424
32.420000	1.118515
32.430000	1.119151
32.440000	1.124242
32.450000	1.124242
32.460000	1.132514
32.470000	1.136968
32.480000	1.140786
32.490000	1.144603
32.500000	1.143331
32.510000	1.138240
32.520000	1.141422
32.530000	1.140786
32.540000	1.141422
32.550000	1.145240
32.560000	1.142058
32.570000	1.140149
32.580000	1.138877
32.590000	1.129332
32.600000	1.126151
32.610000	1.124242
32.620000	1.119151
32.630000	1.121060
32.640000	1.117879
32.650000	1.108971
32.660000	1.106425
32.670000	1.096881
32.680000	1.087336
32.690000	1.088609
32.700000	1.083519
32.710000	1.080973
32.720000	1.082882
32.730000	1.073338
32.740000	1.066338
32.750000	1.061884
32.760000	1.052340
32.770000	1.054249
32.780000	1.054249
32.790000	1.054249
32.800000	1.051067
32.810000	1.048522
32.820000	1.041523
32.830000	1.041523
32.840000	1.038341
32.850000	1.038341
32.860000	1.045977
32.870000	1.044068
32.880000	1.043432
32.890000	1.044068
32.900000	1.040886
32.910000	1.038977
32.920000	1.045977
32.930000	1.045977
32.940000	1.053612
32.950000	1.056794
32.960000	1.056158
32.970000	1.059339
32.980000	1.056794
32.990000	1.054249
33.000000	1.061884
33.010000	1.068247
33.020000	1.071429
33.030000	1.075883
33.040000	1.075247
33.050000	1.073338
33.060000	1.076519
33.070000	1.072701
33.080000	1.079701
33.090000	1.085427
33.100000	1.086064
33.110000	1.088609
33.120000	1.088609
33.130000	1.082882
33.140000	1.084791
33.150000	1.082882
33.160000	1.084791
33.170000	1.092427
33.180000	1.090518
33.190000	1.087336
33.200000	1.087973
33.210000	1.082246
33.220000	1.081610
33.230000	1.082882
33.240000	1.083519
33.250000	1.084791
33.260000	1.087336
33.270000	1.082882
33.280000	1.082246
33.290000	1.077156
33.300000	1.072701
33.310000	1.075247
33.320000	1.077792
33.330000	1.076519
33.340000	1.079064
33.350000	1.075883
33.360000	1.073974
33.370000	1.072701
33.380000	1.069520
33.390000	1.070156
33.400000	1.073338
33.410000	1.072701
33.420000	1.074610
33.430000	1.073338
33.440000	1.071429
33.450000	1.070792
33.460000	1.070792
33.470000	1.068247
33.480000	1.073338
33.490000	1.072701
33.500000	1.073338
33.510000	1.075247
33.520000	1.071429
33.530000	1.070156
33.540000	1.072065
33.550000	1.071429
33.560000	1.072065
33.570000	1.075883
33.580000	1.071429
33.590000	1.072701
33.600000	1.073338
33.610000	1.070792
33.620000	1.073338
33.630000	1.073974
33.640000	1.072065
33.650000	1.075247
33.660000	1.072065
33.670000	1.072065
33.680000	1.075883
33.690000	1.072701
33.700000	1.072701
33.710000	1.075247
33.720000	1.070792
33.730000	1.074610
33.740000	1.075247
33.750000	1.070156
33.760000	1.072701
33.770000	1.075883
33.780000	1.072701
33.790000	1.076519
33.800000	1.077156
33.810000	1.075247
33.820000	1.077792
33.830000	1.073974
33.840000	1.075247
33.850000	1.079701
33.860000	1.080337
33.870000	1.082246
33.880000	1.084791
33.890000	1.080973
33.900000	1.082882
33.910000	1.083519
33.920000	1.084155
33.930000	1.086700
33.940000	1.091154
33.950000	1.091790
33.960000	1.094972
33.970000	1.091790
33.980000	1.089882
33.990000	1.094972
34.000000	1.094336
34.010000	1.094972
34.020000	1.100699
34.030000	1.100062
34.040000	1.101971
34.050000	1.102608
34.060000	1.097517
34.070000	1.098153
34.080000	1.101335
34.090000	1.101971
34.100000	1.103880
34.110000	1.106425
34.120000	1.101971
34.130000	1.103880
34.140000	1.099426
34.150000	1.096881
34.160000	1.099426
34.170000	1.095608
34.180000	1.098153
34.190000	1.100699
34.200000	1.095608
34.210000	1.093699
34.220000	1.090518
34.230000	1.085427
34.240000	1.087973
34.250000	1.087336
34.260000	1.087973
34.270000	1.087973
34.280000	1.083519
34.290000	1.078428
34.300000	1.077792
34.310000	1.073338
34.320000	1.072701
34.330000	1.075883
34.340000	1.073974
34.350000	1.072701
34.360000	1.072065
34.370000	1.066975
34.380000	1.066338
34.390000	1.065702
34.400000	1.063793
34.410000	1.067611
34.420000	1.070156
34.430000	1.069520
34.440000	1.069520
34.450000	1.067611
34.460000	1.066338
34.470000	1.069520
34.480000	1.066975
34.490000	1.069520
34.500000	1.075883
34.510000	1.076519
34.520000	1.075247
34.530000	1.077792
34.540000	1.076519
34.550000	1.078428
34.560000	1.082882
34.570000	1.083519
34.580000	1.088609
34.590000	1.090518
34.600000	1.089882
34.610000	1.092427
34.620000	1.091154
34.630000	1.094336
34.640000	1.100062
34.650000	1.098790
34.660000	1.101971
34.670000	1.104516
34.680000	1.101971
34.690000	1.103244
34.700000	1.103880
34.710000	1.102608
34.720000	1.105789
34.730000	1.107698
34.740000	1.105153
34.750000	1.105153
34.760000	1.103880
34.770000	1.100062
34.780000	1.101335
34.790000	1.099426
34.800000	1.096881
34.810000	1.102608
34.820000	1.098153
34.830000	1.093063
34.840000	1.093063
34.850000	1.085427
34.860000	1.083519
34.870000	1.084155
34.880000	1.082246
34.890000	1.080973
34.900000	1.078428
34.910000	1.072065
34.920000	1.070792
34.930000	1.068247
34.940000	1.064429
34.950000	1.067611
34.960000	1.066338
34.970000	1.063157
34.980000	1.063157
34.990000	1.056158
35.000000	1.052976
35.010000	1.054249
35.020000	1.052976
35.030000	1.056794
35.040000	1.059339
35.050000	1.054885
35.060000	1.058703
35.070000	1.054249
35.080000	1.050431
35.090000	1.056158
35.100000	1.057430
35.110000	1.061248
35.120000	1.065702
35.130000	1.066338
35.140000	1.065702
35.150000	1.068247
35.160000	1.068247
35.170000	1.068247
35.180000	1.074610
35.190000	1.077792
35.200000	1.084791
35.210000	1.088609
35.220000	1.087336
35.230000	1.087973
35.240000	1.089882
35.250000	1.087973
35.260000	1.096245
35.270000	1.098790
35.280000	1.101335
35.290000	1.108334
35.300000	1.105153
35.310000	1.103244
35.320000	1.104516
35.330000	1.105153
35.340000	1.107062
35.350000	1.110879
35.360000	1.110243
35.370000	1.110879
35.380000	1.112152
35.390000	1.105789
35.400000	1.103244
35.410000	1.103244
35.420000	1.103244
35.430000	1.105153
35.440000	1.103244
35.450000	1.099426
35.460000	1.100062
35.470000	1.091154
35.480000	1.089245
35.490000	1.089245
35.500000	1.084155
35.510000	1.084155
35.520000	1.085427
35.530000	1.077156
35.540000	1.076519
35.550000	1.072701
35.560000	1.065066
35.570000	1.066338
35.580000	1.062521
35.590000	1.059975
35.600000	1.063157
35.610000	1.059339
35.620000	1.052976
35.630000	1.053612
35.640000	1.049795
35.650000	1.049158
35.660000	1.052340
35.670000	1.048522
35.680000	1.049795
35.690000	1.049158
35.700000	1.045977
35.710000	1.046613
35.720000	1.045977
35.730000	1.044704
35.740000	1.047886
35.750000	1.049158
35.760000	1.049158
35.770000	1.053612
35.780000	1.052340
35.790000	1.051703
35.800000	1.054885
35.810000	1.055521
35.820000	1.054885
35.830000	1.061248
35.840000	1.062521
35.850000	1.062521
35.860000	1.066338
35.870000	1.064429
35.880000	1.068884
35.890000	1.069520
35.900000	1.069520
35.910000	1.077156
35.920000	1.078428
35.930000	1.076519
35.940000	1.079701
35.950000	1.079064
35.960000	1.080973
35.970000	1.085427
35.980000	1.085427
35.990000	1.085427
36.000000	1.089245
36.010000	1.087336
36.020000	1.087973
36.030000	1.092427
36.040000	1.089245
36.050000	1.091790
36.060000	1.093699
36.070000	1.091790
36.080000	1.094972
36.090000	1.092427
36.100000	1.089245
36.110000	1.095608
36.120000	1.093063
36.130000	1.092427
36.140000	1.097517
36.150000	1.092427
36.160000	1.091790
36.170000	1.090518
36.180000	1.090518
36.190000	1.091790
36.200000	1.093699
36.210000	1.091154
36.220000	1.093063
36.230000	1.092427
36.240000	1.086700
36.250000	1.089245
36.260000	1.087336
36.270000	1.087336
36.280000	1.089882
36.290000	1.087973
36.300000	1.087336
36.310000	1.087973
36.320000	1.083519
36.330000	1.082882
36.340000	1.084791
36.350000	1.081610
36.360000	1.085427
36.370000	1.085427
36.380000	1.081610
36.390000	1.080973
36.400000	1.079701
36.410000	1.076519
36.420000	1.079701
36.430000	1.079064
36.440000	1.078428
36.450000	1.081610
36.460000	1.079701
36.470000	1.077792
36.480000	1.078428
36.490000	1.075247
36.500000	1.075883
36.510000	1.078428
36.520000	1.075883
36.530000	1.079064
36.540000	1.077156
36.550000	1.073974
36.560000	1.074610
36.570000	1.072701
36.580000	1.072065
36.590000	1.076519
36.600000	1.077156
36.610000	1.075883
36.620000	1.077792
36.630000	1.074610
36.640000	1.072701
36.650000	1.076519
36.660000	1.075247
36.670000	1.078428
36.680000	1.080973
36.690000	1.080973
36.700000	1.082246
36.710000	1.082246
36.720000	1.079701
36.730000	1.081610
36.740000	1.084155
36.750000	1.084791
36.760000	1.089882
36.770000	1.090518
36.780000	1.089882
36.790000	1.091154
36.800000	1.088609
36.810000	1.090518
36.820000	1.095608
36.830000	1.096881
36.840000	1.101335
36.850000	1.105153
36.860000	1.101971
36.870000	1.103244
36.880000	1.103244
36.890000	1.100699
36.900000	1.106425
36.910000	1.108334
36.920000	1.108334
36.930000	1.113425
36.940000	1.112152
36.950000	1.110243
36.960000	1.113425
36.970000	1.110243
36.980000	1.112152
36.990000	1.115334
37.000000	1.113425
37.010000	1.114697
37.020000	1.112788
37.030000	1.107698
37.040000	1.108971
37.050000	1.107062
37.060000	1.105153
37.070000	1.104516
37.080000	1.103244
37.090000	1.100062
37.100000	1.100699
37.110000	1.094972
37.120000	1.089882
37.130000	1.087973
37.140000	1.082246
37.150000	1.082246
37.160000	1.081610
37.170000	1.073974
37.180000	1.072065
37.190000	1.070792
37.200000	1.061884
37.210000	1.061884
37.220000	1.058703
37.230000	1.053612
37.240000	1.056158
37.250000	1.052976
37.260000	1.047886
37.270000	1.049158
37.280000	1.044068
37.290000	1.040886
37.300000	1.042159
37.310000	1.037069
37.320000	1.040886
37.330000	1.042795
37.340000	1.040886
37.350000	1.042795
37.360000	1.042159
37.370000	1.039614
37.380000	1.044704
37.390000	1.047249
37.400000	1.049158
37.410000	1.054249
37.420000	1.057430
37.430000	1.056794
37.440000	1.064429
37.450000	1.062521
37.460000	1.067611
37.470000	1.072701
37.480000	1.074610
37.490000	1.082246
37.500000	1.086700
37.510000	1.086700
37.520000	1.093063
37.530000	1.093699
37.540000	1.096881
37.550000	1.101971
37.560000	1.105153
37.570000	1.105789
37.580000	1.112788
37.590000	1.112788
37.600000	1.112788
37.610000	1.117242
37.620000	1.111516
37.630000	1.113425
37.640000	1.115970
37.650000	1.112788
37.660000	1.114697
37.670000	1.114697
37.680000	1.111516
37.690000	1.109607
37.700000	1.107698
37.710000	1.100699
37.720000	1.098790
37.730000	1.096881
37.740000	1.093063
37.750000	1.093699
37.760000	1.087973
37.770000	1.083519
37.780000	1.080337
37.790000	1.070792
37.800000	1.068884
37.810000	1.067611
37.820000	1.062521
37.830000	1.061248
37.840000	1.058066
37.850000	1.052340
37.860000	1.050431
37.870000	1.044704
37.880000	1.041523
37.890000	1.044068
37.900000	1.041523
37.910000	1.040250
37.920000	1.043432
37.930000	1.038977
37.940000	1.038977
37.950000	1.038341
37.960000	1.036432
37.970000	1.038341
37.980000	1.044068
37.990000	1.042159
38.000000	1.047249
38.010000	1.049158
38.020000	1.047249
38.030000	1.051703
38.040000	1.054249
38.050000	1.058066
38.060000	1.067611
38.070000	1.071429
38.080000	1.072701
38.090000	1.079064
38.100000	1.077156
38.110000	1.081610
38.120000	1.087336
38.130000	1.088609
38.140000	1.094336
38.150000	1.100062
38.160000	1.100062
38.170000	1.103244
38.180000	1.104516
38.190000	1.103880
38.200000	1.108971
38.210000	1.110879
38.220000	1.112152
38.230000	1.115970
38.240000	1.114697
38.250000	1.111516
38.260000	1.114061
38.270000	1.108971
38.280000	1.110879
38.290000	1.112788
38.300000	1.108334
38.310000	1.109607
38.320000	1.107062
38.330000	1.100062
38.340000	1.098153
38.350000	1.096881
38.360000	1.091790
38.370000	1.093699
38.380000	1.090518
38.390000	1.087336
38.400000	1.086064
38.410000	1.077792
38.420000	1.072701
38.430000	1.072701
38.440000	1.067611
38.450000	1.068247
38.460000	1.067611
38.470000	1.062521
38.480000	1.062521
38.490000	1.058703
38.500000	1.053612
38.510000	1.052340
38.520000	1.051703
38.530000	1.050431
38.540000	1.054885
38.550000	1.052976
38.560000	1.051067
38.570000	1.051703
38.580000	1.051703
38.590000	1.049158
38.600000	1.054885
38.610000	1.052976
38.620000	1.058703
38.630000	1.064429
38.640000	1.061884
38.650000	1.064429
38.660000	1.066338
38.670000	1.067611
38.680000	1.072065
38.690000	1.077156
38.700000	1.079064
38.710000	1.086064
38.720000	1.088609
38.730000	1.089882
38.740000	1.094336
38.750000	1.094336
38.760000	1.098153
38.770000	1.104516
38.780000	1.103880
38.790000	1.108334
38.800000	1.110879
38.810000	1.110243
38.820000	1.112788
38.830000	1.115970
38.840000	1.113425
38.850000	1.118515
38.860000	1.117879
38.870000	1.116606
38.880000	1.119151
38.890000	1.114061
38.900000	1.112152
38.910000	1.114697
38.920000	1.112152
38.930000	1.109607
38.940000	1.110243
38.950000	1.105789
38.960000	1.104516
38.970000	1.103244
38.980000	1.095608
38.990000	1.096881
39.000000	1.093699
39.010000	1.087973
39.020000	1.087973
39.030000	1.086064
39.040000	1.079701
39.050000	1.081610
39.060000	1.075247
39.070000	1.073338
39.080000	1.073974
39.090000	1.069520
39.100000	1.068884
39.110000	1.067611
39.120000	1.062521
39.130000	1.063793
39.140000	1.063793
39.150000	1.061248
39.160000	1.065066
39.170000	1.065066
39.180000	1.062521
39.190000	1.065066
39.200000	1.064429
39.210000	1.062521
39.220000	1.066338
39.230000	1.067611
39.240000	1.071429
39.250000	1.076519
39.260000	1.073974
39.270000	1.077156
39.280000	1.078428
39.290000	1.075883
39.300000	1.079701
39.310000	1.082246
39.320000	1.081610
39.330000	1.087973
39.340000	1.091154
39.350000	1.088609
39.360000	1.093063
39.370000	1.094336
39.380000	1.093699
39.390000	1.098153
39.400000	1.092427
39.410000	1.092427
39.420000	1.094972
39.430000	1.091790
39.440000	1.095608
39.450000	1.096881
39.460000	1.092427
39.470000	1.094336
39.480000	1.094972
39.490000	1.086700
39.500000	1.087336
39.510000	1.084155
39.520000	1.081610
39.530000	1.085427
39.540000	1.082246
39.550000	1.081610
39.560000	1.080337
39.570000	1.074610
39.580000	1.070156
39.590000	1.072701
39.600000	1.068884
39.610000	1.070792
39.620000	1.073974
39.630000	1.069520
39.640000	1.068884
39.650000	1.065702
39.660000	1.063157
39.670000	1.065066
39.680000	1.067611
39.690000	1.066338
39.700000	1.073338
39.710000	1.072701
39.720000	1.071429
39.730000	1.072701
39.740000	1.068884
39.750000	1.071429
39.760000	1.077156
39.770000	1.079701
39.780000	1.084155
39.790000	1.086700
39.800000	1.084155
39.810000	1.087336
39.820000	1.089245
39.830000	1.087336
39.840000	1.092427
39.850000	1.095608
39.860000	1.097517
39.870000	1.103244
39.880000	1.100699
39.890000	1.098790
39.900000	1.100699
39.910000	1.095608
39.920000	1.095608
39.930000	1.101335
39.940000	1.099426
39.950000	1.100699
39.960000	1.100699
39.970000	1.093063
39.980000	1.093063
39.990000	1.091790
40.000000	1.087973
40.010000	1.090518
40.020000	1.087336
40.030000	1.085427
40.040000	1.082882
40.050000	1.076519
40.060000	1.070792
40.070000	1.072065
40.080000	1.069520
40.090000	1.066975
40.100000	1.068247
40.110000	1.061248
40.120000	1.061884
40.130000	1.057430
40.140000	1.051703
40.150000	1.052976
40.160000	1.052340
40.170000	1.050431
40.180000	1.054249
40.190000	1.051067
40.200000	1.046613
40.210000	1.047249
40.220000	1.045977
40.230000	1.047249
40.240000	1.053612
40.250000	1.054249
40.260000	1.056158
40.270000	1.057430
40.280000	1.053612
40.290000	1.054885
40.300000	1.058066
40.310000	1.061884
40.320000	1.070792
40.330000	1.074610
40.340000	1.075247
40.350000	1.078428
40.360000	1.077156
40.370000	1.077156
40.380000	1.082882
40.390000	1.087336
40.400000	1.092427
40.410000	1.100699
40.420000	1.100062
40.430000	1.100062
40.440000	1.101971
40.450000	1.098790
40.460000	1.102608
40.470000	1.107062
40.480000	1.110243
40.490000	1.116606
40.500000	1.117242
40.510000	1.112788
40.520000	1.113425
40.530000	1.107698
40.540000	1.107698
40.550000	1.111516
40.560000	1.110243
40.570000	1.112152
40.580000	1.113425
40.590000	1.105789
40.600000	1.101971
40.610000	1.098790
40.620000	1.093063
40.630000	1.094336
40.640000	1.096881
40.650000	1.090518
40.660000	1.087973
40.670000	1.080973
40.680000	1.072701
40.690000	1.072065
40.700000	1.066975
40.710000	1.066338
40.720000	1.068247
40.730000	1.061884
40.740000	1.058066
40.750000	1.053612
40.760000	1.045340
40.770000	1.044704
40.780000	1.044704
40.790000	1.042159
40.800000	1.045977
40.810000	1.044068
40.820000	1.037069
40.830000	1.035796
40.840000	1.031978
40.850000	1.030706
40.860000	1.038341
40.870000	1.042159
40.880000	1.042159
40.890000	1.044704
40.900000	1.038341
40.910000	1.039614
40.920000	1.044704
40.930000	1.047249
40.940000	1.055521
40.950000	1.061884
40.960000	1.061884
40.970000	1.066338
40.980000	1.066338
40.990000	1.065066
41.000000	1.074610
41.010000	1.081610
41.020000	1.088609
41.030000	1.098790
41.040000	1.098153
41.050000	1.095608
41.060000	1.100062
41.070000	1.100062
41.080000	1.108971
41.090000	1.118515
41.100000	1.123606
41.110000	1.128696
41.120000	1.126787
41.130000	1.120424
41.140000	1.120424
41.150000	1.122969
41.160000	1.126787
41.170000	1.138240
41.180000	1.138877
41.190000	1.135059
41.200000	1.132514
41.210000	1.122333
41.220000	1.118515
41.230000	1.121697
41.240000	1.121697
41.250000	1.127423
41.260000	1.128696
41.270000	1.118515
41.280000	1.112788
41.290000	1.103244
41.300000	1.093699
41.310000	1.094972
41.320000	1.096881
41.330000	1.096245
41.340000	1.094972
41.350000	1.085427
41.360000	1.072701
41.370000	1.065066
41.380000	1.056794
41.390000	1.057430
41.400000	1.063157
41.410000	1.061884
41.420000	1.059339
41.430000	1.054885
41.440000	1.041523
41.450000	1.035160
41.460000	1.033887
41.470000	1.032614
41.480000	1.040886
41.490000	1.043432
41.500000	1.042159
41.510000	1.038977
41.520000	1.031978
41.530000	1.026251
41.540000	1.031342
41.550000	1.037069
41.560000	1.046613
41.570000	1.056158
41.580000	1.055521
41.590000	1.054885
41.600000	1.054249
41.610000	1.051703
41.620000	1.059339
41.630000	1.071429
41.640000	1.077792
41.650000	1.090518
41.660000	1.092427
41.670000	1.090518
41.680000	1.094336
41.690000	1.095608
41.700000	1.102608
41.710000	1.114061
41.720000	1.121060
41.730000	1.127423
41.740000	1.132514
41.750000	1.127423
41.760000	1.130605
41.770000	1.132514
41.780000	1.134423
41.790000	1.143967
41.800000	1.150966
41.810000	1.150330
41.820000	1.152239
41.830000	1.145876
41.840000	1.140786
41.850000	1.144603
41.860000	1.143967
41.870000	1.143967
41.880000	1.147785
41.890000	1.140786
41.900000	1.135695
41.910000	1.131241
41.920000	1.121697
41.930000	1.118515
41.940000	1.119788
41.950000	1.113425
41.960000	1.112788
41.970000	1.102608
41.980000	1.089882
41.990000	1.085427
42.000000	1.076519
42.010000	1.072701
42.020000	1.073974
42.030000	1.065066
42.040000	1.060612
42.050000	1.054249
42.060000	1.040886
42.070000	1.031978
42.080000	1.028160
42.090000	1.022434
42.100000	1.024343
42.110000	1.023706
42.120000	1.016707
42.130000	1.012253
42.140000	1.003345
42.150000	0.996345
42.160000	1.000163
42.170000	0.998890
42.180000	1.001436
42.190000	1.007799
42.200000	1.005253
42.210000	1.000799
42.220000	1.001436
42.230000	0.996982
42.240000	1.001436
42.250000	1.011616
42.260000	1.014798
42.270000	1.023706
42.280000	1.026888
42.290000	1.028160
42.300000	1.032614
42.310000	1.037705
42.320000	1.044068
42.330000	1.058066
42.340000	1.066338
42.350000	1.073338
42.360000	1.080337
42.370000	1.079701
42.380000	1.085427
42.390000	1.093063
42.400000	1.100699
42.410000	1.111516
42.420000	1.122333
42.430000	1.126787
42.440000	1.133150
42.450000	1.134423
42.460000	1.135059
42.470000	1.141422
42.480000	1.144603
42.490000	1.150966
42.500000	1.159238
42.510000	1.158602
42.520000	1.159238
42.530000	1.159238
42.540000	1.154148
42.550000	1.154784
42.560000	1.156693
42.570000	1.156057
42.580000	1.159238
42.590000	1.155421
42.600000	1.148421
42.610000	1.142058
42.620000	1.133786
42.630000	1.125514
42.640000	1.126151
42.650000	1.122969
42.660000	1.117879
42.670000	1.114061
42.680000	1.103244
42.690000	1.089882
42.700000	1.083519
42.710000	1.075247
42.720000	1.072701
42.730000	1.070156
42.740000	1.061884
42.750000	1.056158
42.760000	1.047886
42.770000	1.035160
42.780000	1.028797
42.790000	1.022434
42.800000	1.018616
42.810000	1.021797
42.820000	1.016707
42.830000	1.011616
42.840000	1.008435
42.850000	1.000799
42.860000	0.998890
42.870000	0.999527
42.880000	0.997618
42.890000	0.998254
42.900000	1.003981
42.910000	1.000799
42.920000	1.002072
42.930000	1.003345
42.940000	1.001436
42.950000	1.009071
42.960000	1.014798
42.970000	1.019888
42.980000	1.029433
42.990000	1.033887
43.000000	1.035160
43.010000	1.040250
43.020000	1.044068
43.030000	1.052340
43.040000	1.062521
43.050000	1.067611
43.060000	1.077156
43.070000	1.084155
43.080000	1.084791
43.090000	1.093063
43.100000	1.098153
43.110000	1.102608
43.120000	1.114697
43.130000	1.121060
43.140000	1.125514
43.150000	1.131241
43.160000	1.129332
43.170000	1.131241
43.180000	1.138877
43.190000	1.140149
43.200000	1.145876
43.210000	1.151603
43.220000	1.152875
43.230000	1.154784
43.240000	1.150966
43.250000	1.147785
43.260000	1.150966
43.270000	1.151603
43.280000	1.152875
43.290000	1.155421
43.300000	1.149694
43.310000	1.145876
43.320000	1.142058
43.330000	1.136332
43.340000	1.133150
43.350000	1.133786
43.360000	1.128060
43.370000	1.123606
43.380000	1.120424
43.390000	1.109607
43.400000	1.105789
43.410000	1.100699
43.420000	1.092427
43.430000	1.092427
43.440000	1.090518
43.450000	1.081610
43.460000	1.079701
43.470000	1.068884
43.480000	1.062521
43.490000	1.061248
43.500000	1.055521
43.510000	1.051703
43.520000	1.051703
43.530000	1.046613
43.540000	1.041523
43.550000	1.037705
43.560000	1.031978
43.570000	1.030706
43.580000	1.033251
43.590000	1.031342
43.600000	1.032614
43.610000	1.030069
43.620000	1.023706
43.630000	1.025615
43.640000	1.023706
43.650000	1.024979
43.660000	1.031978
43.670000	1.033887
43.680000	1.036432
43.690000	1.038977
43.700000	1.035796
43.710000	1.036432
43.720000	1.041523
43.730000	1.045977
43.740000	1.054249
43.750000	1.063157
43.760000	1.063157
43.770000	1.065702
43.780000	1.065702
43.790000	1.066338
43.800000	1.075247
43.810000	1.080973
43.820000	1.089882
43.830000	1.098153
43.840000	1.098153
43.850000	1.098153
43.860000	1.100699
43.870000	1.098790
43.880000	1.105153
43.890000	1.113425
43.900000	1.115970
43.910000	1.121697
43.920000	1.122333
43.930000	1.117879
43.940000	1.120424
43.950000	1.121060
43.960000	1.120424
43.970000	1.128060
43.980000	1.128060
43.990000	1.128696
44.000000	1.129332
44.010000	1.121060
44.020000	1.117879
44.030000	1.118515
44.040000	1.115334
44.050000	1.118515
44.060000	1.119151
44.070000	1.114697
44.080000	1.112152
44.090000	1.107698
44.100000	1.102608
44.110000	1.100699
44.120000	1.100062
44.130000	1.097517
44.140000	1.100062
44.150000	1.093699
44.160000	1.087973
44.170000	1.084791
44.180000	1.079701
44.190000	1.078428
44.200000	1.078428
44.210000	1.072701
44.220000	1.072065
44.230000	1.069520
44.240000	1.062521
44.250000	1.062521
44.260000	1.059975
44.270000	1.056794
44.280000	1.059339
44.290000	1.056794
44.300000	1.054885
44.310000	1.054885
44.320000	1.051067
44.330000	1.045340
44.340000	1.050431
44.350000	1.046613
44.360000	1.048522
44.370000	1.049158
44.380000	1.045340
44.390000	1.046613
44.400000	1.047249
44.410000	1.045977
44.420000	1.051703
44.430000	1.051703
44.440000	1.050431
44.450000	1.053612
44.460000	1.054249
44.470000	1.054249
44.480000	1.058066
44.490000	1.059339
44.500000	1.062521
44.510000	1.066975
44.520000	1.066975
44.530000	1.070792
44.540000	1.074610
44.550000	1.072065
44.560000	1.077156
44.570000	1.082246
44.580000	1.082882
44.590000	1.087973
44.600000	1.093063
44.610000	1.093063
44.620000	1.097517
44.630000	1.096881
44.640000	1.100062
44.650000	1.107062
44.660000	1.107062
44.670000	1.108971
44.680000	1.113425
44.690000	1.112152
44.700000	1.113425
44.710000	1.115334
44.720000	1.112788
44.730000	1.116606
44.740000	1.118515
44.750000	1.117242
44.760000	1.118515
44.770000	1.114697
44.780000	1.111516
44.790000	1.112788
44.800000	1.110879
44.810000	1.110243
44.820000	1.114061
44.830000	1.107698
44.840000	1.105789
44.850000	1.101971
44.860000	1.095608
44.870000	1.091790
44.880000	1.090518
44.890000	1.085427
44.900000	1.086700
44.910000	1.081610
44.920000	1.072065
44.930000	1.070792
44.940000	1.066338
44.950000	1.058703
44.960000	1.059339
44.970000	1.056158
44.980000	1.050431
44.990000	1.051067
45.000000	1.045340
45.010000	1.042795
45.020000	1.039614
45.030000	1.033251
45.040000	1.033887
45.050000	1.036432
45.060000	1.032614
45.070000	1.033251
45.080000	1.037069
45.090000	1.030706
45.100000	1.034523
45.110000	1.032614
45.120000	1.031342
45.130000	1.038341
45.140000	1.040250
45.150000	1.041523
45.160000	1.047886
45.170000	1.047249
45.180000	1.051703
45.190000	1.056158
45.200000	1.058703
45.210000	1.063793
45.220000	1.071429
45.230000	1.074610
45.240000	1.083519
45.250000	1.088609
45.260000	1.090518
45.270000	1.097517
45.280000	1.100062
45.290000	1.103244
45.300000	1.110243
45.310000	1.112152
45.320000	1.115970
45.330000	1.124878
45.340000	1.124878
45.350000	1.128696
45.360000	1.131241
45.370000	1.127423
45.380000	1.131877
45.390000	1.135059
45.400000	1.133786
45.410000	1.136968
45.420000	1.136332
45.430000	1.133786
45.440000	1.135695
45.450000	1.128696
45.460000	1.124242
45.470000	1.125514
45.480000	1.118515
45.490000	1.115334
45.500000	1.117242
45.510000	1.107062
45.520000	1.102608
45.530000	1.100062
45.540000	1.089245
45.550000	1.086064
45.560000	1.079701
45.570000	1.071429
45.580000	1.069520
45.590000	1.065066
45.600000	1.058066
45.610000	1.053612
45.620000	1.047249
45.630000	1.040886
45.640000	1.038977
45.650000	1.031978
45.660000	1.030706
45.670000	1.030706
45.680000	1.023070
45.690000	1.020525
45.700000	1.019888
45.710000	1.014162
45.720000	1.015434
45.730000	1.015434
45.740000	1.016707
45.750000	1.019888
45.760000	1.019252
45.770000	1.017343
45.780000	1.023070
45.790000	1.024343
45.800000	1.027524
45.810000	1.036432
45.820000	1.038977
45.830000	1.044704
45.840000	1.052976
45.850000	1.054885
45.860000	1.062521
45.870000	1.068884
45.880000	1.071429
45.890000	1.081610
45.900000	1.089882
45.910000	1.095608
45.920000	1.103880
45.930000	1.111516
45.940000	1.112788
45.950000	1.119151
45.960000	1.121697
45.970000	1.130605
45.980000	1.138877
45.990000	1.140149
46.000000	1.147149
46.010000	1.152239
46.020000	1.149694
46.030000	1.150966
46.040000	1.154148
46.050000	1.152875
46.060000	1.157966
46.070000	1.159238
46.080000	1.158602
46.090000	1.159238
46.100000	1.153512
46.110000	1.147785
46.120000	1.146512
46.130000	1.140786
46.140000	1.138240
46.150000	1.137604
46.160000	1.129332
46.170000	1.122969
46.180000	1.118515
46.190000	1.107698
46.200000	1.103244
46.210000	1.098153
46.220000	1.087336
46.230000	1.086700
46.240000	1.079064
46.250000	1.070156
46.260000	1.064429
46.270000	1.057430
46.280000	1.048522
46.290000	1.047249
46.300000	1.042795
46.310000	1.035160
46.320000	1.034523
46.330000	1.028160
46.340000	1.019888
46.350000	1.019888
46.360000	1.014162
46.370000	1.014798
46.380000	1.014162
46.390000	1.012253
46.400000	1.016071
46.410000	1.013525
46.420000	1.010344
46.430000	1.016071
46.440000	1.014162
46.450000	1.017979
46.460000	1.026251
46.470000	1.028797
46.480000	1.031978
46.490000	1.035796
46.500000	1.037069
46.510000	1.042159
46.520000	1.049158
46.530000	1.051703
46.540000	1.062521
46.550000	1.070792
46.560000	1.074610
46.570000	1.080337
46.580000	1.084791
46.590000	1.087973
46.600000	1.098153
46.610000	1.102608
46.620000	1.107062
46.630000	1.117242
46.640000	1.120424
46.650000	1.122333
46.660000	1.126787
46.670000	1.127423
46.680000	1.133150
46.690000	1.138240
46.700000	1.139513
46.710000	1.143331
46.720000	1.143967
46.730000	1.143967
46.740000	1.145876
46.750000	1.140786
46.760000	1.140786
46.770000	1.145876
46.780000	1.143967
46.790000	1.140786
46.800000	1.138877
46.810000	1.133786
46.820000	1.131877
46.830000	1.127423
46.840000	1.119788
46.850000	1.117879
46.860000	1.115970
46.870000	1.107698
46.880000	1.105789
46.890000	1.100062
46.900000	1.093063
46.910000	1.087973
46.920000	1.079701
46.930000	1.075883
46.940000	1.075883
46.950000	1.068884
46.960000	1.064429
46.970000	1.061248
46.980000	1.052976
46.990000	1.045340
47.000000	1.044704
47.010000	1.037069
47.020000	1.034523
47.030000	1.034523
47.040000	1.029433
47.050000	1.026888
47.060000	1.024343
47.070000	1.019888
47.080000	1.018616
47.090000	1.017343
47.100000	1.016707
47.110000	1.022434
47.120000	1.018616
47.130000	1.019252
47.140000	1.022434
47.150000	1.017979
47.160000	1.021797
47.170000	1.026888
47.180000	1.026888
47.190000	1.031978
47.200000	1.036432
47.210000	1.038977
47.220000	1.044704
47.230000	1.045977
47.240000	1.046613
47.250000	1.056158
47.260000	1.061884
47.270000	1.065702
47.280000	1.077156
47.290000	1.079064
47.300000	1.079701
47.310000	1.087336
47.320000	1.089245
47.330000	1.097517
47.340000	1.101971
47.350000	1.105789
47.360000	1.114061
47.370000	1.119788
47.380000	1.122333
47.390000	1.126151
47.400000	1.126787
47.410000	1.126787
47.420000	1.135695
47.430000	1.137604
47.440000	1.141422
47.450000	1.146512
47.460000	1.145240
47.470000	1.142695
47.480000	1.144603
47.490000	1.141422
47.500000	1.143331
47.510000	1.144603
47.520000	1.143331
47.530000	1.143967
47.540000	1.143331
47.550000	1.136332
47.560000	1.133150
47.570000	1.127423
47.580000	1.121697
47.590000	1.119151
47.600000	1.114061
47.610000	1.113425
47.620000	1.111516
47.630000	1.101971
47.640000	1.091790
47.650000	1.086700
47.660000	1.078428
47.670000	1.073338
47.680000	1.073338
47.690000	1.066338
47.700000	1.064429
47.710000	1.058066
47.720000	1.045340
47.730000	1.041523
47.740000	1.036432
47.750000	1.029433
47.760000	1.034523
47.770000	1.026251
47.780000	1.025615
47.790000	1.021161
47.800000	1.014162
47.810000	1.012253
47.820000	1.010980
47.830000	1.009708
47.840000	1.011616
47.850000	1.013525
47.860000	1.010344
47.870000	1.010980
47.880000	1.010344
47.890000	1.008435
47.900000	1.016071
47.910000	1.021797
47.920000	1.025615
47.930000	1.032614
47.940000	1.028797
47.950000	1.028797
47.960000	1.035796
47.970000	1.040886
47.980000	1.052340
47.990000	1.063157
48.000000	1.064429
48.010000	1.072065
48.020000	1.074610
48.030000	1.070792
48.040000	1.077792
48.050000	1.087336
48.060000	1.097517
48.070000	1.112788
48.080000	1.116606
48.090000	1.117242
48.100000	1.119788
48.110000	1.115970
48.120000	1.119788
48.130000	1.130605
48.140000	1.137604
48.150000	1.145876
48.160000	1.151603
48.170000	1.149058
48.180000	1.148421
48.190000	1.145240
48.200000	1.140149
48.210000	1.147149
48.220000	1.153512
48.230000	1.156693
48.240000	1.163056
48.250000	1.154784
48.260000	1.143967
48.270000	1.136332
48.280000	1.128696
48.290000	1.128696
48.300000	1.133786
48.310000	1.133150
48.320000	1.131241
48.330000	1.123606
48.340000	1.105789
48.350000	1.092427
48.360000	1.084791
48.370000	1.081610
48.380000	1.086064
48.390000	1.085427
48.400000	1.078428
48.410000	1.070156
48.420000	1.048522
48.430000	1.037069
48.440000	1.030706
48.450000	1.032614
48.460000	1.033887
48.470000	1.038977
48.480000	1.031978
48.490000	1.019252
48.500000	1.009708
48.510000	0.993800
48.520000	0.995073
48.530000	1.001436
48.540000	1.007799
48.550000	1.016707
48.560000	1.014798
48.570000	1.003345
48.580000	0.998254
48.590000	0.991891
48.600000	0.996345
48.610000	1.010344
48.620000	1.021161
48.630000	1.035160
48.640000	1.042159
48.650000	1.036432
48.660000	1.035160
48.670000	1.037069
48.680000	1.040886
48.690000	1.058703
48.700000	1.075883
48.710000	1.089882
48.720000	1.098790
48.730000	1.101335
48.740000	1.098153
48.750000	1.101971
48.760000	1.108971
48.770000	1.121697
48.780000	1.142058
48.790000	1.152239
48.800000	1.158602
48.810000	1.162420
48.820000	1.154148
48.830000	1.155421
48.840000	1.159875
48.850000	1.168147
48.860000	1.183418
48.870000	1.189145
48.880000	1.189145
48.890000	1.187236
48.900000	1.172601
48.910000	1.167510
48.920000	1.168783
48.930000	1.168783
48.940000	1.173873
48.950000	1.176419
48.960000	1.165601
48.970000	1.150966
48.980000	1.138240
48.990000	1.128060
49.000000	1.124878
49.010000	1.122333
49.020000	1.117879
49.030000	1.114061
49.040000	1.100699
49.050000	1.079701
49.060000	1.066338
49.070000	1.056794
49.080000	1.051703
49.090000	1.052976
49.100000	1.047886
49.110000	1.038341
49.120000	1.027524
49.130000	1.011616
49.140000	1.001436
49.150000	0.997618
49.160000	0.993164
49.170000	0.996345
49.180000	0.998890
49.190000	0.992527
49.200000	0.987437
49.210000	0.979801
49.220000	0.973438
49.230000	0.977256
49.240000	0.982347
49.250000	0.988073
49.260000	0.998890
49.270000	0.999527
49.280000	1.001436
49.290000	1.001436
49.300000	0.998890
49.310000	1.008435
49.320000	1.021797
49.330000	1.035160
49.340000	1.049158
49.350000	1.055521
49.360000	1.054885
49.370000	1.058066
49.380000	1.065702
49.390000	1.075247
49.400000	1.094336
49.410000	1.105153
49.420000	1.111516
49.430000	1.118515
49.440000	1.117242
49.450000	1.120424
49.460000	1.128696
49.470000	1.133150
49.480000	1.151603
49.490000	1.156693
49.500000	1.163056
49.510000	1.159238
49.520000	1.155421
49.530000	1.153512
49.540000	1.157329
49.550000	1.164329
49.560000	1.164965
49.570000	1.167510
49.580000	1.161784
49.590000	1.153512
49.600000	1.150966
49.610000	1.143331
49.620000	1.140786
49.630000	1.141422
49.640000	1.132514
49.650000	1.128060
49.660000	1.118515
49.670000	1.107698
49.680000	1.103244
49.690000	1.097517
49.700000	1.089882
49.710000	1.100062
49.720000	1.096881
49.730000	1.072701
49.740000	1.075883
49.750000	1.034523
49.760000	1.036432
49.770000	1.031978
49.780000	1.029433
49.790000	1.031978
49.800000	1.028797
49.810000	1.031342
49.820000	1.028160
49.830000	1.023070
49.840000	1.019888
49.850000	1.016071
49.860000	1.018616
49.870000	1.021797
49.880000	1.017979
49.890000	1.024979
49.900000	1.014162
49.910000	1.019252
49.920000	1.017343
49.930000	1.020525
49.940000	1.030706
49.950000	1.035796
49.960000	1.032614
49.970000	1.043432
49.980000	1.031978
49.990000	1.045977
50.000000	1.052340
50.010000	1.057430
50.020000	1.071429
50.030000	1.072701
50.040000	1.072701
50.050000	1.077156
50.060000	1.075247
50.070000	1.084155
50.080000	1.096881
50.090000	1.101971
50.100000	1.110879
50.110000	1.108334
50.120000	1.109607
50.130000	1.105789
50.140000	1.111516
50.150000	1.115970
50.160000	1.126151
50.170000	1.130605
50.180000	1.133786
50.190000	1.126787
50.200000	1.129332
50.210000	1.119788
50.220000	1.123606
50.230000	1.128060
50.240000	1.130605
50.250000	1.136332
50.260000	1.129969
50.270000	1.122969
50.280000	1.122969
50.290000	1.110243
50.300000	1.112152
50.310000	1.112788
50.320000	1.112152
50.330000	1.113425
50.340000	1.112152
50.350000	1.102608
50.360000	1.100699
50.370000	1.087336
50.380000	1.087336
50.390000	1.087973
50.400000	1.086700
50.410000	1.084155
50.420000	1.082246
50.430000	1.075883
50.440000	1.068247
50.450000	1.065066
50.460000	1.059339
50.470000	1.063157
50.480000	1.064429
50.490000	1.061248
50.500000	1.059339
50.510000	1.056794
50.520000	1.047249
50.530000	1.045340
50.540000	1.047249
50.550000	1.051067
50.560000	1.055521
50.570000	1.052976
50.580000	1.048522
50.590000	1.047249
50.600000	1.042159
50.610000	1.042795
50.620000	1.048522
50.630000	1.052340
50.640000	1.058066
50.650000	1.060612
50.660000	1.054885
50.670000	1.054885
50.680000	1.052976
50.690000	1.056794
50.700000	1.064429
50.710000	1.072065
50.720000	1.075883
50.730000	1.079701
50.740000	1.075883
50.750000	1.071429
50.760000	1.077156
50.770000	1.079064
50.780000	1.086064
50.790000	1.094972
50.800000	1.098153
50.810000	1.099426
50.820000	1.097517
50.830000	1.091790
50.840000	1.095608
50.850000	1.096881
50.860000	1.101335
50.870000	1.108971
50.880000	1.110243
50.890000	1.107698
50.900000	1.108334
50.910000	1.102608
50.920000	1.101971
50.930000	1.105153
50.940000	1.104516
50.950000	1.106425
50.960000	1.107062
50.970000	1.102608
50.980000	1.101335
50.990000	1.099426
51.000000	1.094336
51.010000	1.094972
51.020000	1.094972
51.030000	1.094336
51.040000	1.095608
51.050000	1.092427
51.060000	1.085427
51.070000	1.084155
51.080000	1.081610
51.090000	1.080337
51.100000	1.085427
51.110000	1.080337
51.120000	1.080337
51.130000	1.080337
51.140000	1.072065
51.150000	1.071429
51.160000	1.070792
51.170000	1.070156
51.180000	1.075247
51.190000	1.073974
51.200000	1.068884
51.210000	1.069520
51.220000	1.065702
51.230000	1.063793
51.240000	1.068884
51.250000	1.067611
51.260000	1.068884
51.270000	1.070792
51.280000	1.065702
51.290000	1.064429
51.300000	1.065702
51.310000	1.063157
51.320000	1.067611
51.330000	1.068247
51.340000	1.067611
51.350000	1.068247
51.360000	1.065066
51.370000	1.061884
51.380000	1.064429
51.390000	1.063793
51.400000	1.061248
51.410000	1.066338
51.420000	1.063793
51.430000	1.063157
51.440000	1.065702
51.450000	1.063157
51.460000	1.061884
51.470000	1.062521
51.480000	1.059975
51.490000	1.062521
51.500000	1.064429
51.510000	1.065066
51.520000	1.072701
51.530000	1.070792
51.540000	1.063157
51.550000	1.062521
51.560000	1.068247
51.570000	1.059975
51.580000	1.068884
51.590000	1.069520
51.600000	1.070792
51.610000	1.079701
51.620000	1.077156
51.630000	1.086064
51.640000	1.087336
51.650000	1.087336
51.660000	1.088609
51.670000	1.093699
51.680000	1.093063
51.690000	1.098790
51.700000	1.098790
51.710000	1.101971
51.720000	1.108334
51.730000	1.114061
51.740000	1.111516
51.750000	1.117879
51.760000	1.113425
51.770000	1.114061
51.780000	1.117879
51.790000	1.117879
51.800000	1.126151
51.810000	1.129969
51.820000	1.124242
51.830000	1.122969
51.840000	1.120424
51.850000	1.112788
51.860000	1.119151
51.870000	1.114061
51.880000	1.119151
51.890000	1.122333
51.900000	1.120424
51.910000	1.112152
51.920000	1.107062
51.930000	1.096881
51.940000	1.095608
51.950000	1.096881
51.960000	1.098153
51.970000	1.099426
51.980000	1.095608
51.990000	1.086064
52.000000	1.077792
52.010000	1.066975
52.020000	1.061884
52.030000	1.066975
52.040000	1.067611
52.050000	1.065066
52.060000	1.064429
52.070000	1.056158
52.080000	1.043432
52.090000	1.040250
52.100000	1.033887
52.110000	1.037069
52.120000	1.042159
52.130000	1.038341
52.140000	1.037069
52.150000	1.033887
52.160000	1.026251
52.170000	1.026888
52.180000	1.025615
52.190000	1.027524
52.200000	1.034523
52.210000	1.036432
52.220000	1.036432
52.230000	1.042795
52.240000	1.037705
52.250000	1.042159
52.260000	1.045977
52.270000	1.049795
52.280000	1.058703
52.290000	1.065702
52.300000	1.067611
52.310000	1.074610
52.320000	1.075247
52.330000	1.078428
52.340000	1.087336
52.350000	1.093699
52.360000	1.096881
52.370000	1.105153
52.380000	1.110243
52.390000	1.112152
52.400000	1.119151
52.410000	1.119151
52.420000	1.122969
52.430000	1.130605
52.440000	1.131241
52.450000	1.135059
52.460000	1.136332
52.470000	1.134423
52.480000	1.136332
52.490000	1.138877
52.500000	1.139513
52.510000	1.142695
52.520000	1.133150
52.530000	1.131877
52.540000	1.136332
52.550000	1.129969
52.560000	1.128060
52.570000	1.130605
52.580000	1.124242
52.590000	1.120424
52.600000	1.115970
52.610000	1.107062
52.620000	1.101971
52.630000	1.096245
52.640000	1.093699
52.650000	1.090518
52.660000	1.087336
52.670000	1.079064
52.680000	1.073974
52.690000	1.064429
52.700000	1.055521
52.710000	1.054885
52.720000	1.051067
52.730000	1.049158
52.740000	1.050431
52.750000	1.042159
52.760000	1.037705
52.770000	1.031342
52.780000	1.021797
52.790000	1.023706
52.800000	1.026251
52.810000	1.024979
52.820000	1.026888
52.830000	1.026888
52.840000	1.020525
52.850000	1.021797
52.860000	1.022434
52.870000	1.021161
52.880000	1.030069
52.890000	1.031978
52.900000	1.037705
52.910000	1.042159
52.920000	1.040886
52.930000	1.041523
52.940000	1.047249
52.950000	1.051067
52.960000	1.057430
52.970000	1.064429
52.980000	1.067611
52.990000	1.074610
53.000000	1.077792
53.010000	1.080973
53.020000	1.087336
53.030000	1.089882
53.040000	1.090518
53.050000	1.096881
53.060000	1.099426
53.070000	1.103880
53.080000	1.110879
53.090000	1.107698
53.100000	1.108971
53.110000	1.114061
53.120000	1.111516
53.130000	1.114697
53.140000	1.117242
53.150000	1.114697
53.160000	1.117242
53.170000	1.115334
53.180000	1.116606
53.190000	1.115334
53.200000	1.112152
53.210000	1.113425
53.220000	1.108334
53.230000	1.107062
53.240000	1.100062
53.250000	1.100699
53.260000	1.098153
53.270000	1.093699
53.280000	1.093699
53.290000	1.089245
53.300000	1.087336
53.310000	1.084155
53.320000	1.075883
53.330000	1.077156
53.340000	1.076519
53.350000	1.070156
53.360000	1.075247
53.370000	1.069520
53.380000	1.065702
53.390000	1.065066
53.400000	1.059975
53.410000	1.061248
53.420000	1.062521
53.430000	1.059339
53.440000	1.061884
53.450000	1.059975
53.460000	1.058066
53.470000	1.058703
53.480000	1.059975
53.490000	1.059339
53.500000	1.065066
53.510000	1.063157
53.520000	1.065066
53.530000	1.068247
53.540000	1.068247
53.550000	1.067611
53.560000	1.072701
53.570000	1.073338
53.580000	1.072701
53.590000	1.078428
53.600000	1.076519
53.610000	1.079064
53.620000	1.087336
53.630000	1.084155
53.640000	1.087973
53.650000	1.086700
53.660000	1.083519
53.670000	1.085427
53.680000	1.087336
53.690000	1.089245
53.700000	1.097517
53.710000	1.097517
53.720000	1.098790
53.730000	1.097517
53.740000	1.087973
53.750000	1.085427
53.760000	1.084791
53.770000	1.086064
53.780000	1.093699
53.790000	1.098790
53.800000	1.095608
53.810000	1.093699
53.820000	1.085427
53.830000	1.077156
53.840000	1.078428
53.850000	1.079701
53.860000	1.086064
53.870000	1.093063
53.880000	1.087973
53.890000	1.082246
53.900000	1.079701
53.910000	1.065702
53.920000	1.067611
53.930000	1.073974
53.940000	1.082882
53.950000	1.086700
53.960000	1.083519
53.970000	1.075883
53.980000	1.071429
53.990000	1.067611
54.000000	1.065066
54.010000	1.072701
54.020000	1.082246
54.030000	1.083519
54.040000	1.090518
54.050000	1.082246
54.060000	1.076519
54.070000	1.074610
54.080000	1.070156
54.090000	1.075247
54.100000	1.084791
54.110000	1.084155
54.120000	1.089882
54.130000	1.087973
54.140000	1.080337
54.150000	1.081610
54.160000	1.078428
54.170000	1.077792
54.180000	1.086700
54.190000	1.089245
54.200000	1.088609
54.210000	1.087973
54.220000	1.081610
54.230000	1.080337
54.240000	1.081610
54.250000	1.081610
54.260000	1.082882
54.270000	1.082882
54.280000	1.079701
54.290000	1.080337
54.300000	1.079064
54.310000	1.076519
54.320000	1.082246
54.330000	1.085427
54.340000	1.080973
54.350000	1.080337
54.360000	1.075247
54.370000	1.070792
54.380000	1.074610
54.390000	1.077792
54.400000	1.082882
54.410000	1.090518
54.420000	1.087336
54.430000	1.081610
54.440000	1.079064
54.450000	1.073338
54.460000	1.080337
54.470000	1.092427
54.480000	1.093699
54.490000	1.094972
54.500000	1.098153
54.510000	1.086700
54.520000	1.092427
54.530000	1.084155
54.540000	1.086064
54.550000	1.107698
54.560000	1.107698
54.570000	1.114061
54.580000	1.105789
54.590000	1.089245
54.600000	1.088609
54.610000	1.082882
54.620000	1.119788
54.630000	1.109607
54.640000	1.131241
54.650000	1.112152
54.660000	1.102608
54.670000	1.085427
54.680000	1.080337
54.690000	1.086700
54.700000	1.103244
54.710000	1.120424
54.720000	1.126151
54.730000	1.110243
54.740000	1.084155
54.750000	1.067611
54.760000	1.052976
54.770000	1.070792
54.780000	1.091154
54.790000	1.108971
54.800000	1.107698
54.810000	1.093699
54.820000	1.057430
54.830000	1.045340
54.840000	1.031978
54.850000	1.053612
54.860000	1.072065
54.870000	1.096881
54.880000	1.090518
54.890000	1.071429
54.900000	1.038341
54.910000	1.020525
54.920000	1.022434
54.930000	1.043432
54.940000	1.064429
54.950000	1.085427
54.960000	1.076519
54.970000	1.062521
54.980000	1.036432
54.990000	1.016707
55.000000	1.025615
55.010000	1.042795
55.020000	1.068247
55.030000	1.082882
55.040000	1.080973
55.050000	1.063793
55.060000	1.049795
55.070000	1.030706
55.080000	1.043432
55.090000	1.058066
55.100000	1.084791
55.110000	1.095608
55.120000	1.099426
55.130000	1.077156
55.140000	1.064429
55.150000	1.053612
55.160000	1.066338
55.170000	1.088609
55.180000	1.112152
55.190000	1.115334
55.200000	1.116606
55.210000	1.095608
55.220000	1.081610
55.230000	1.079701
55.240000	1.089882
55.250000	1.110879
55.260000	1.131241
55.270000	1.130605
55.280000	1.124878
55.290000	1.105153
55.300000	1.089882
55.310000	1.093699
55.320000	1.102608
55.330000	1.119788
55.340000	1.131877
55.350000	1.128060
55.360000	1.112788
55.370000	1.099426
55.380000	1.082882
55.390000	1.087336
55.400000	1.095608
55.410000	1.107698
55.420000	1.111516
55.430000	1.105789
55.440000	1.082882
55.450000	1.070156
55.460000	1.059339
55.470000	1.064429
55.480000	1.077156
55.490000	1.084155
55.500000	1.081610
55.510000	1.072701
55.520000	1.054249
55.530000	1.037705
55.540000	1.035160
55.550000	1.040886
55.560000	1.054249
55.570000	1.063157
55.580000	1.059339
55.590000	1.045977
55.600000	1.030706
55.610000	1.014162
55.620000	1.019888
55.630000	1.029433
55.640000	1.044704
55.650000	1.055521
55.660000	1.052340
55.670000	1.038977
55.680000	1.030069
55.690000	1.019252
55.700000	1.025615
55.710000	1.038977
55.720000	1.051703
55.730000	1.063793
55.740000	1.065702
55.750000	1.054249
55.760000	1.047886
55.770000	1.044068
55.780000	1.048522
55.790000	1.065066
55.800000	1.079701
55.810000	1.086700
55.820000	1.091790
55.830000	1.083519
55.840000	1.075883
55.850000	1.074610
55.860000	1.080337
55.870000	1.093699
55.880000	1.108971
55.890000	1.114061
55.900000	1.115970
55.910000	1.110243
55.920000	1.098790
55.930000	1.096881
55.940000	1.101971
55.950000	1.110243
55.960000	1.124878
55.970000	1.128696
55.980000	1.125514
55.990000	1.121060
56.000000	1.109607
56.010000	1.103880
56.020000	1.113425
56.030000	1.117879
56.040000	1.124878
56.050000	1.128060
56.060000	1.118515
56.070000	1.112788
56.080000	1.109607
56.090000	1.104516
56.100000	1.112788
56.110000	1.121060
56.120000	1.119788
56.130000	1.117242
56.140000	1.106425
56.150000	1.095608
56.160000	1.093699
56.170000	1.094972
56.180000	1.101971
56.190000	1.112788
56.200000	1.109607
56.210000	1.100699
56.220000	1.090518
56.230000	1.075247
56.240000	1.071429
56.250000	1.072065
56.260000	1.075247
56.270000	1.094336
56.280000	1.100062
56.290000	1.083519
56.300000	1.067611
56.310000	1.045977
56.320000	1.039614
56.330000	1.047886
56.340000	1.057430
56.350000	1.071429
56.360000	1.077156
56.370000	1.068247
56.380000	1.051067
56.390000	1.033251
56.400000	1.019888
56.410000	1.021797
56.420000	1.038341
56.430000	1.057430
56.440000	1.069520
56.450000	1.070156
56.460000	1.052340
56.470000	1.033251
56.480000	1.017979
56.490000	1.016707
56.500000	1.040886
56.510000	1.062521
56.520000	1.082882
56.530000	1.089882
56.540000	1.072065
56.550000	1.049158
56.560000	1.037705
56.570000	1.036432
56.580000	1.062521
56.590000	1.090518
56.600000	1.108334
56.610000	1.112788
56.620000	1.098153
56.630000	1.081610
56.640000	1.071429
56.650000	1.070156
56.660000	1.086700
56.670000	1.112788
56.680000	1.126151
56.690000	1.129332
56.700000	1.122969
56.710000	1.105153
56.720000	1.093063
56.730000	1.093063
56.740000	1.101971
56.750000	1.121697
56.760000	1.138877
56.770000	1.138877
56.780000	1.131877
56.790000	1.113425
56.800000	1.096881
56.810000	1.095608
56.820000	1.101971
56.830000	1.117242
56.840000	1.131877
56.850000	1.129332
56.860000	1.117879
56.870000	1.098153
56.880000	1.078428
56.890000	1.079064
56.900000	1.094336
56.910000	1.101971
56.920000	1.112788
56.930000	1.105789
56.940000	1.087336
56.950000	1.070792
56.960000	1.054885
56.970000	1.053612
56.980000	1.072065
56.990000	1.088609
57.000000	1.098153
57.010000	1.091790
57.020000	1.065702
57.030000	1.042159
57.040000	1.031342
57.050000	1.039614
57.060000	1.063157
57.070000	1.086700
57.080000	1.091790
57.090000	1.085427
57.100000	1.059339
57.110000	1.034523
57.120000	1.031978
57.130000	1.047886
57.140000	1.073338
57.150000	1.103244
57.160000	1.104516
57.170000	1.089882
57.180000	1.068247
57.190000	1.049158
57.200000	1.048522
57.210000	1.068247
57.220000	1.090518
57.230000	1.112788
57.240000	1.117879
57.250000	1.101971
57.260000	1.084155
57.270000	1.068247
57.280000	1.063793
57.290000	1.080337
57.300000	1.100699
57.310000	1.117879
57.320000	1.123606
57.330000	1.108334
57.340000	1.087973
57.350000	1.074610
57.360000	1.066338
57.370000	1.077156
57.380000	1.097517
57.390000	1.110879
57.400000	1.115334
57.410000	1.103880
57.420000	1.079701
57.430000	1.062521
57.440000	1.059975
57.450000	1.066338
57.460000	1.088609
57.470000	1.101335
57.480000	1.100062
57.490000	1.089245
57.500000	1.066338
57.510000	1.049158
57.520000	1.051703
57.530000	1.061248
57.540000	1.082246
57.550000	1.094336
57.560000	1.087973
57.570000	1.072701
57.580000	1.056158
57.590000	1.044704
57.600000	1.051703
57.610000	1.065702
57.620000	1.079701
57.630000	1.090518
57.640000	1.080337
57.650000	1.065066
57.660000	1.052976
57.670000	1.046613
57.680000	1.055521
57.690000	1.074610
57.700000	1.084155
57.710000	1.086064
57.720000	1.077156
57.730000	1.058066
57.740000	1.049158
57.750000	1.052340
57.760000	1.060612
57.770000	1.075247
57.780000	1.081610
57.790000	1.077792
57.800000	1.071429
57.810000	1.056158
57.820000	1.049158
57.830000	1.052976
57.840000	1.058703
57.850000	1.071429
57.860000	1.077792
57.870000	1.073338
57.880000	1.065702
57.890000	1.056158
57.900000	1.045977
57.910000	1.051067
57.920000	1.059975
57.930000	1.068247
57.940000	1.076519
57.950000	1.073338
57.960000	1.065702
57.970000	1.059975
57.980000	1.054885
57.990000	1.057430
58.000000	1.069520
58.010000	1.079064
58.020000	1.085427
58.030000	1.086700
58.040000	1.077792
58.050000	1.072065
58.060000	1.071429
58.070000	1.076519
58.080000	1.091790
58.090000	1.102608
58.100000	1.105153
58.110000	1.105789
58.120000	1.094972
58.130000	1.091790
58.140000	1.096881
58.150000	1.103880
58.160000	1.115334
58.170000	1.127423
58.180000	1.122333
58.190000	1.117879
58.200000	1.112152
58.210000	1.107062
58.220000	1.112788
58.230000	1.122333
58.240000	1.128060
58.250000	1.130605
58.260000	1.125514
58.270000	1.115970
58.280000	1.110879
58.290000	1.105153
58.300000	1.108971
58.310000	1.117879
58.320000	1.118515
58.330000	1.114061
58.340000	1.110243
58.350000	1.094336
58.360000	1.085427
58.370000	1.082246
58.380000	1.080337
58.390000	1.086064
58.400000	1.086064
58.410000	1.079701
58.420000	1.073974
58.430000	1.061884
58.440000	1.048522
58.450000	1.048522
58.460000	1.047249
58.470000	1.048522
58.480000	1.053612
58.490000	1.047249
58.500000	1.040250
58.510000	1.031978
58.520000	1.023070
58.530000	1.020525
58.540000	1.026251
58.550000	1.030069
58.560000	1.037069
58.570000	1.035160
58.580000	1.027524
58.590000	1.023070
58.600000	1.020525
58.610000	1.019252
58.620000	1.033251
58.630000	1.042159
58.640000	1.048522
58.650000	1.052340
58.660000	1.047886
58.670000	1.043432
58.680000	1.049158
58.690000	1.054885
58.700000	1.067611
58.710000	1.080973
58.720000	1.085427
58.730000	1.089245
58.740000	1.087336
58.750000	1.084155
58.760000	1.093063
58.770000	1.102608
58.780000	1.113425
58.790000	1.127423
58.800000	1.128060
58.810000	1.124242
58.820000	1.128060
58.830000	1.125514
58.840000	1.132514
58.850000	1.141422
58.860000	1.146512
58.870000	1.153512
58.880000	1.151603
58.890000	1.145240
58.900000	1.144603
58.910000	1.142058
58.920000	1.142058
58.930000	1.149058
58.940000	1.149058
58.950000	1.147785
58.960000	1.146512
58.970000	1.134423
58.980000	1.128696
58.990000	1.124242
59.000000	1.120424
59.010000	1.120424
59.020000	1.123606
59.030000	1.114061
59.040000	1.107062
59.050000	1.097517
59.060000	1.085427
59.070000	1.082246
59.080000	1.078428
59.090000	1.075247
59.100000	1.075883
59.110000	1.069520
59.120000	1.058703
59.130000	1.050431
59.140000	1.040886
59.150000	1.040250
59.160000	1.041523
59.170000	1.039614
59.180000	1.035796
59.190000	1.031342
59.200000	1.021797
59.210000	1.018616
59.220000	1.016707
59.230000	1.014162
59.240000	1.021161
59.250000	1.024343
59.260000	1.022434
59.270000	1.023070
59.280000	1.016707
59.290000	1.014798
59.300000	1.020525
59.310000	1.024979
59.320000	1.031342
59.330000	1.040250
59.340000	1.039614
59.350000	1.042795
59.360000	1.048522
59.370000	1.049158
59.380000	1.059339
59.390000	1.068247
59.400000	1.075247
59.410000	1.083519
59.420000	1.084791
59.430000	1.085427
59.440000	1.094336
59.450000	1.100699
59.460000	1.110243
59.470000	1.122969
59.480000	1.126787
59.490000	1.129969
59.500000	1.132514
59.510000	1.129332
59.520000	1.133786
59.530000	1.140786
59.540000	1.147149
59.550000	1.158602
59.560000	1.161147
59.570000	1.156693
59.580000	1.155421
59.590000	1.147149
59.600000	1.144603
59.610000	1.150966
59.620000	1.150966
59.630000	1.156693
59.640000	1.157966
59.650000	1.147149
59.660000	1.136332
59.670000	1.126787
59.680000	1.114061
59.690000	1.117879
59.700000	1.121697
59.710000	1.120424
59.720000	1.118515
59.730000	1.105153
59.740000	1.084791
59.750000	1.075247
59.760000	1.063793
59.770000	1.062521
59.780000	1.069520
59.790000	1.070156
59.800000	1.063157
59.810000	1.052976
59.820000	1.032614
59.830000	1.021161
59.840000	1.017343
59.850000	1.014798
59.860000	1.023706
59.870000	1.028797
59.880000	1.021161
59.890000	1.012889
59.900000	1.003981
59.910000	0.988710
59.920000	0.988710
59.930000	0.995073
59.940000	1.002708
59.950000	1.014798
59.960000	1.012253
59.970000	1.009071
59.980000	1.005890
59.990000	0.998254
60.000000	1.000799
60.010000	1.014798
60.020000	1.024979
60.030000	1.035796
60.040000	1.040250
60.050000	1.039614
60.060000	1.038341
60.070000	1.040886
60.080000	1.042159
60.090000	1.058703
60.100000	1.070156
60.110000	1.081610
60.120000	1.092427
60.130000	1.089882
60.140000	1.087973
60.150000	1.092427
60.160000	1.093063
60.170000	1.103244
60.180000	1.119151
60.190000	1.126151
60.200000	1.134423
60.210000	1.132514
60.220000	1.125514
60.230000	1.126151
60.240000	1.127423
60.250000	1.133786
60.260000	1.145240
60.270000	1.150330
60.280000	1.150330
60.290000	1.147149
60.300000	1.137604
60.310000	1.130605
60.320000	1.133150
60.330000	1.133786
60.340000	1.138877
60.350000	1.142058
60.360000	1.135695
60.370000	1.129332
60.380000	1.119788
60.390000	1.108334
60.400000	1.106425
60.410000	1.106425
60.420000	1.106425
60.430000	1.107698
60.440000	1.100699
60.450000	1.087973
60.460000	1.082882
60.470000	1.069520
60.480000	1.063157
60.490000	1.067611
60.500000	1.065066
60.510000	1.066338
60.520000	1.061884
60.530000	1.049158
60.540000	1.042159
60.550000	1.035796
60.560000	1.026888
60.570000	1.028160
60.580000	1.029433
60.590000	1.031978
60.600000	1.032614
60.610000	1.026888
60.620000	1.019888
60.630000	1.016707
60.640000	1.010980
60.650000	1.010344
60.660000	1.016707
60.670000	1.019252
60.680000	1.024979
60.690000	1.026251
60.700000	1.023070
60.710000	1.023706
60.720000	1.025615
60.730000	1.025615
60.740000	1.033887
60.750000	1.039614
60.760000	1.046613
60.770000	1.054885
60.780000	1.054885
60.790000	1.058066
60.800000	1.066338
60.810000	1.068247
60.820000	1.073974
60.830000	1.085427
60.840000	1.087336
60.850000	1.098153
60.860000	1.102608
60.870000	1.105153
60.880000	1.113425
60.890000	1.115970
60.900000	1.121060
60.910000	1.128696
60.920000	1.130605
60.930000	1.135695
60.940000	1.146512
60.950000	1.146512
60.960000	1.147785
60.970000	1.151603
60.980000	1.150330
60.990000	1.150330
61.000000	1.153512
61.010000	1.154148
61.020000	1.160511
61.030000	1.158602
61.040000	1.156057
61.050000	1.155421
61.060000	1.150330
61.070000	1.143331
61.080000	1.141422
61.090000	1.139513
61.100000	1.135695
61.110000	1.140149
61.120000	1.134423
61.130000	1.126151
61.140000	1.117879
61.150000	1.104516
61.160000	1.096245
61.170000	1.098790
61.180000	1.093063
61.190000	1.092427
61.200000	1.087973
61.210000	1.073974
61.220000	1.065066
61.230000	1.061884
61.240000	1.066338
61.250000	1.060612
61.260000	1.055521
61.270000	1.043432
61.280000	1.048522
61.290000	1.031342
61.300000	1.034523
61.310000	1.030706
61.320000	1.031978
61.330000	1.040250
61.340000	1.037705
61.350000	1.033251
61.360000	1.019888
61.370000	1.018616
61.380000	1.017979
61.390000	1.033251
61.400000	1.047886
61.410000	1.058703
61.420000	1.056794
61.430000	1.050431
61.440000	1.031978
61.450000	1.024343
61.460000	1.037069
61.470000	1.058703
61.480000	1.093063
61.490000	1.100062
61.500000	1.093063
61.510000	1.086700
61.520000	1.065066
61.530000	1.068247
61.540000	1.080337
61.550000	1.110243
61.560000	1.138240
61.570000	1.141422
61.580000	1.133786
61.590000	1.121697
61.600000	1.097517
61.610000	1.094336
61.620000	1.110243
61.630000	1.129332
61.640000	1.150966
61.650000	1.161147
61.660000	1.150966
61.670000	1.129969
61.680000	1.105789
61.690000	1.095608
61.700000	1.098790
61.710000	1.120424
61.720000	1.135695
61.730000	1.140786
61.740000	1.133786
61.750000	1.099426
61.760000	1.077156
61.770000	1.062521
61.780000	1.054885
61.790000	1.079064
61.800000	1.093063
61.810000	1.095608
61.820000	1.089882
61.830000	1.045977
61.840000	1.031342
61.850000	1.014162
61.860000	1.019252
61.870000	1.040886
61.880000	1.054249
61.890000	1.063157
61.900000	1.049158
61.910000	1.017343
61.920000	1.000799
61.930000	0.989346
61.940000	0.999527
61.950000	1.024343
61.960000	1.044704
61.970000	1.051703
61.980000	1.035796
61.990000	1.016707
62.000000	0.999527
62.010000	0.993800
62.020000	1.014798
62.030000	1.040886
62.040000	1.061884
62.050000	1.072065
62.060000	1.051067
62.070000	1.035160
62.080000	1.024979
62.090000	1.026251
62.100000	1.051703
62.110000	1.075247
62.120000	1.090518
62.130000	1.099426
62.140000	1.081610
62.150000	1.069520
62.160000	1.059339
62.170000	1.062521
62.180000	1.086064
62.190000	1.109607
62.200000	1.123606
62.210000	1.128696
62.220000	1.112788
62.230000	1.097517
62.240000	1.091790
62.250000	1.096881
62.260000	1.112788
62.270000	1.133786
62.280000	1.144603
62.290000	1.139513
62.300000	1.129969
62.310000	1.112152
62.320000	1.103244
62.330000	1.110243
62.340000	1.122333
62.350000	1.135695
62.360000	1.147149
62.370000	1.134423
62.380000	1.124878
62.390000	1.107062
62.400000	1.096245
62.410000	1.100699
62.420000	1.109607
62.430000	1.118515
62.440000	1.128696
62.450000	1.114061
62.460000	1.100062
62.470000	1.086064
62.480000	1.072701
62.490000	1.080973
62.500000	1.091790
62.510000	1.097517
62.520000	1.100062
62.530000	1.090518
62.540000	1.072701
62.550000	1.061248
62.560000	1.056158
62.570000	1.061248
62.580000	1.073338
62.590000	1.079701
62.600000	1.076519
62.610000	1.066975
62.620000	1.049795
62.630000	1.040250
62.640000	1.043432
62.650000	1.049795
62.660000	1.059975
62.670000	1.069520
62.680000	1.059339
62.690000	1.049795
62.700000	1.040250
62.710000	1.030069
62.720000	1.038341
62.730000	1.051067
62.740000	1.058066
62.750000	1.066338
62.760000	1.059975
62.770000	1.046613
62.780000	1.042159
62.790000	1.038341
62.800000	1.049795
62.810000	1.065066
62.820000	1.072701
62.830000	1.076519
62.840000	1.072701
62.850000	1.059339
62.860000	1.055521
62.870000	1.059975
62.880000	1.067611
62.890000	1.086064
62.900000	1.093699
62.910000	1.093699
62.920000	1.088609
62.930000	1.079701
62.940000	1.077156
62.950000	1.082246
62.960000	1.093699
62.970000	1.103244
62.980000	1.114697
62.990000	1.112152
63.000000	1.106425
63.010000	1.100062
63.020000	1.093063
63.030000	1.098153
63.040000	1.111516
63.050000	1.116606
63.060000	1.127423
63.070000	1.122333
63.080000	1.114061
63.090000	1.108334
63.100000	1.105153
63.110000	1.107062
63.120000	1.115970
63.130000	1.119788
63.140000	1.122333
63.150000	1.121060
63.160000	1.111516
63.170000	1.106425
63.180000	1.102608
63.190000	1.100699
63.200000	1.107698
63.210000	1.108971
63.220000	1.106425
63.230000	1.103244
63.240000	1.096881
63.250000	1.088609
63.260000	1.087973
63.270000	1.087973
63.280000	1.087336
63.290000	1.089245
63.300000	1.086064
63.310000	1.082246
63.320000	1.076519
63.330000	1.067611
63.340000	1.067611
63.350000	1.069520
63.360000	1.068884
63.370000	1.070156
63.380000	1.065066
63.390000	1.056158
63.400000	1.052976
63.410000	1.049795
63.420000	1.050431
63.430000	1.055521
63.440000	1.052340
63.450000	1.051067
63.460000	1.048522
63.470000	1.039614
63.480000	1.038341
63.490000	1.039614
63.500000	1.042159
63.510000	1.047249
63.520000	1.051067
63.530000	1.047249
63.540000	1.044704
63.550000	1.038977
63.560000	1.037069
63.570000	1.044704
63.580000	1.051067
63.590000	1.055521
63.600000	1.063793
63.610000	1.061248
63.620000	1.056794
63.630000	1.057430
63.640000	1.056794
63.650000	1.066338
63.660000	1.075247
63.670000	1.079701
63.680000	1.085427
63.690000	1.089245
63.700000	1.083519
63.710000	1.084791
63.720000	1.088609
63.730000	1.091790
63.740000	1.103244
63.750000	1.108971
63.760000	1.112152
